File: Data_Processing/Tensile-Data/Sequence_8.csv
General : Start date,"10/22/2024 9:32 AM"
General : End date,"10/22/2024 9:33 AM"
Specimen notes : Specimen note 1,"blue, 200, batch 5, seq 8"
Test : Rate 1,"5.00000",mm/min

Time,Extension,Load
(s),(mm),(N)
"0.00000","0.00000","-0.37047"
"0.10000","0.00111","0.08319"
"0.20000","0.00786","7.29710"
"0.30000","0.02117","32.32445"
"0.40000","0.03175","51.79268"
"0.50000","0.04012","65.36646"
"0.60000","0.04939","81.60658"
"0.70000","0.05856","96.71529"
"0.80000","0.06683","110.88"
"0.90000","0.07509","125.2"
"1.00000","0.08336","138.297"
"1.10000","0.09182","153.342"
"1.20000","0.10029","167.943"
"1.30000","0.10855","168.742"
"1.40000","0.11722","186.02"
"1.50000","0.12539","199.046"
"1.60000","0.13325","212.809"
"1.70000","0.14141","228.162"
"1.80000","0.14988","243.18"
"1.90000","0.15855","258.301"
"2.00000","0.16691","273.07"
"2.10000","0.17528","287.63"
"2.20000","0.18355","301.447"
"2.30000","0.19161","314.721"
"2.40000","0.19987","329.574"
"2.50000","0.20854","345.284"
"2.60000","0.21711","359.633"
"2.70000","0.22537","373.957"
"2.80000","0.23344","388.025"
"2.90000","0.24180","402.46"
"3.00000","0.24997","416.968"
"3.10000","0.25823","431.013"
"3.20000","0.26670","445.302"
"3.30000","0.27537","461.043"
"3.40000","0.28383","475.388"
"3.50000","0.29190","489.099"
"3.60000","0.30006","503.68"
"3.70000","0.30823","517.324"
"3.80000","0.31669","532.299"
"3.90000","0.32516","547.219"
"4.00000","0.33373","561.016"
"4.10000","0.34219","575.687"
"4.20000","0.35046","589.763"
"4.30000","0.35852","603.24"
"4.40000","0.36649","617.512"
"4.50000","0.37485","632.207"
"4.60000","0.38352","647.564"
"4.70000","0.39209","662.848"
"4.80000","0.40025","676.319"
"4.90000","0.40811","689.423"
"5.00000","0.41628","703.701"
"5.10000","0.42474","717.445"
"5.20000","0.43341","733.056"
"5.30000","0.44198","747.152"
"5.40000","0.45035","762.319"
"5.50000","0.45851","775.672"
"5.60000","0.46698","789.222"
"5.70000","0.47514","803.295"
"5.80000","0.48351","817.585"
"5.90000","0.49187","832.332"
"6.00000","0.50024","845.921"
"6.10000","0.50871","860.455"
"6.20000","0.51717","874.833"
"6.30000","0.52524","887.973"
"6.40000","0.53310","900.696"
"6.50000","0.54167","915.787"
"6.60000","0.55023","929.246"
"6.70000","0.55860","943.732"
"6.80000","0.56696","958.147"
"6.90000","0.57543","971.508"
"7.00000","0.58339","984.949"
"7.10000","0.59126","998.12"
"7.20000","0.59992","1012.72"
"7.30000","0.60859","1026.46"
"7.40000","0.61706","1040.39"
"7.50000","0.62522","1054.46"
"7.60000","0.63349","1067.95"
"7.70000","0.64185","1081.54"
"7.80000","0.65012","1095.4"
"7.90000","0.65838","1108.87"
"8.00000","0.66695","1122.67"
"8.10000","0.67532","1137.27"
"8.20000","0.68328","1149.98"
"8.30000","0.69144","1163.42"
"8.40000","0.69981","1176.23"
"8.50000","0.70818","1188.96"
"8.60000","0.71644","1203.47"
"8.70000","0.72501","1217.54"
"8.80000","0.73368","1231.75"
"8.90000","0.74204","1244.58"
"9.00000","0.75001","1257.38"
"9.10000","0.75817","1271.27"
"9.20000","0.76654","1284.35"
"9.30000","0.77500","1298.45"
"9.40000","0.78357","1311.73"
"9.50000","0.79204","1325.09"
"9.60000","0.80030","1339.05"
"9.70000","0.80826","1350.78"
"9.80000","0.81653","1363.02"
"9.90000","0.82490","1376.79"
"10.00000","0.83346","1389.93"
"10.10000","0.84193","1403.33"
"10.20000","0.85050","1417.79"
"10.30000","0.85856","1431.32"
"10.40000","0.86662","1443.53"
"10.50000","0.87479","1455.55"
"10.60000","0.88346","1468.98"
"10.70000","0.89192","1482.57"
"10.80000","0.90009","1496.15"
"10.90000","0.90845","1509.43"
"11.00000","0.91712","1523.23"
"11.10000","0.92529","1535.97"
"11.20000","0.93325","1548.24"
"11.30000","0.94141","1561.14"
"11.40000","0.95018","1574.85"
"11.50000","0.95845","1588.28"
"11.60000","0.96671","1600.61"
"11.70000","0.97528","1613.13"
"11.80000","0.98324","1626.45"
"11.90000","0.99131","1638.88"
"12.00000","0.99977","1650.92"
"12.10000","1.00874","1664.89"
"12.20000","1.01711","1678.55"
"12.30000","1.02527","1690.73"
"12.40000","1.03354","1703.94"
"12.50000","1.04180","1716.09"
"12.60000","1.04997","1729.12"
"12.70000","1.05823","1741.32"
"12.80000","1.06690","1754.09"
"12.90000","1.07527","1768.48"
"13.00000","1.08353","1779.89"
"13.10000","1.09160","1792.77"
"13.20000","1.09986","1803.88"
"13.30000","1.10802","1815.61"
"13.40000","1.11659","1827.61"
"13.50000","1.12516","1841.23"
"13.60000","1.13363","1852.72"
"13.70000","1.14199","1865.52"
"13.80000","1.15016","1878.05"
"13.90000","1.15822","1888.89"
"14.00000","1.16659","1901.14"
"14.10000","1.17525","1913.59"
"14.20000","1.18382","1927.06"
"14.30000","1.19209","1939.59"
"14.40000","1.20015","1951.76"
"14.50000","1.20811","1962.94"
"14.60000","1.21648","1974.48"
"14.70000","1.22495","1986.47"
"14.80000","1.23351","1998.12"
"14.90000","1.24188","2012.07"
"15.00000","1.25034","2024.18"
"15.10000","1.25861","2036.43"
"15.20000","1.26657","2048.21"
"15.30000","1.27494","2059.8"
"15.40000","1.28330","2071.39"
"15.50000","1.29157","2084.18"
"15.60000","1.30004","2096.75"
"15.70000","1.30891","2108.5"
"15.80000","1.31707","2120.37"
"15.90000","1.32483","2130.69"
"16.00000","1.33310","2143.2"
"16.10000","1.34187","2154.6"
"16.20000","1.35033","2167.76"
"16.30000","1.35860","2178.19"
"16.40000","1.36686","2190.12"
"16.50000","1.37533","2201.88"
"16.60000","1.38319","2213.46"
"16.70000","1.39136","2224.94"
"16.80000","1.40012","2237.86"
"16.90000","1.40899","2250.29"
"17.00000","1.41706","2261.84"
"17.10000","1.42512","2273.55"
"17.20000","1.43339","2284.84"
"17.30000","1.44165","2296.62"
"17.40000","1.44982","2307.38"
"17.50000","1.45848","2319.89"
"17.60000","1.46695","2330.98"
"17.70000","1.47532","2337.97"
"17.80000","1.48358","2349.39"
"17.90000","1.49164","2360.16"
"18.00000","1.49971","2371.57"
"18.10000","1.50818","2382.72"
"18.20000","1.51674","2394.83"
"18.30000","1.52541","2406.1"
"18.40000","1.53368","2417.29"
"18.50000","1.54194","2428.64"
"18.60000","1.54990","2437.01"
"18.70000","1.55807","2445.44"
"18.80000","1.56653","2457.48"
"18.90000","1.57540","2468.86"
"19.00000","1.58397","2480.05"
"19.10000","1.59204","2491.98"
"19.20000","1.60010","2502.07"
"19.30000","1.60816","2513.74"
"19.40000","1.61643","2524.71"
"19.50000","1.62499","2536.03"
"19.60000","1.63346","2547.81"
"19.70000","1.64193","2559.61"
"19.80000","1.65040","2570.66"
"19.90000","1.65856","2581.1"
"20.00000","1.66662","2592.04"
"20.10000","1.67509","2603.19"
"20.20000","1.68346","2613.7"
"20.30000","1.69182","2625.02"
"20.40000","1.70019","2636.68"
"20.50000","1.70865","2646.6"
"20.60000","1.71682","2658.84"
"20.70000","1.72478","2668.71"
"20.80000","1.73315","2679.08"
"20.90000","1.74181","2689.14"
"21.00000","1.75018","2701.18"
"21.10000","1.75845","2712.23"
"21.20000","1.76671","2722.58"
"21.30000","1.77498","2732.61"
"21.40000","1.78304","2743.4"
"21.50000","1.79141","2747.96"
"21.60000","1.80028","2754.94"
"21.70000","1.80884","2766.29"
"21.80000","1.81681","2776.34"
"21.90000","1.82507","2786.87"
"22.00000","1.83364","2797.67"
"22.10000","1.84180","2808.77"
"22.20000","1.85017","2819.39"
"22.30000","1.85853","2828.64"
"22.40000","1.86690","2839.89"
"22.50000","1.87527","2850"
"22.60000","1.88343","2859.86"
"22.70000","1.89159","2870.09"
"22.80000","1.89996","2880.25"
"22.90000","1.90823","2890.81"
"23.00000","1.91679","2900.93"
"23.10000","1.92526","2912.48"
"23.20000","1.93363","2923.08"
"23.30000","1.94179","2932.71"
"23.40000","1.94985","2942.49"
"23.50000","1.95812","2952.94"
"23.60000","1.96669","2962.56"
"23.70000","1.97515","2973.39"
"23.80000","1.98352","2983.08"
"23.90000","1.99168","2994.65"
"24.00000","1.99985","3003.15"
"24.10000","2.00811","3012.88"
"24.20000","2.01658","3021.23"
"24.30000","2.02515","3030.77"
"24.40000","2.03351","3040.22"
"24.50000","2.04188","3048.31"
"24.60000","2.05024","3057.73"
"24.70000","2.05841","3067.18"
"24.80000","2.06657","3076.88"
"24.90000","2.07504","3086.01"
"25.00000","2.08330","3095.71"
"25.10000","2.09187","3106.21"
"25.20000","2.10054","3115.81"
"25.30000","2.10891","3125.68"
"25.40000","2.11667","3135.14"
"25.50000","2.12463","3143.6"
"25.60000","2.13330","3152.97"
"25.70000","2.14207","3162.69"
"25.80000","2.15023","3171.76"
"25.90000","2.15860","3180.84"
"26.00000","2.16686","3190.28"
"26.10000","2.17493","3198.35"
"26.20000","2.18309","3207.63"
"26.30000","2.19176","3217.52"
"26.40000","2.20043","3226.85"
"26.50000","2.20869","3235.65"
"26.60000","2.21665","3243.17"
"26.70000","2.22482","3251.96"
"26.80000","2.23328","3259.01"
"26.90000","2.24145","3267.89"
"27.00000","2.24992","3276.83"
"27.10000","2.25838","3286.5"
"27.20000","2.26675","3295.66"
"27.30000","2.27532","3303.38"
"27.40000","2.28348","3311.54"
"27.50000","2.29154","3319.91"
"27.60000","2.29981","3327.55"
"27.70000","2.30858","3336"
"27.80000","2.31704","3344.93"
"27.90000","2.32551","3353.37"
"28.00000","2.33388","3161.79"
"28.10000","2.34184","3174.41"
"28.20000","2.34980","3180.01"
"28.30000","2.35807","3187.72"
"28.40000","2.36684","3196.7"
"28.50000","2.37530","3205.54"
"28.60000","2.38367","3202.55"
"28.70000","2.39173","3211.39"
"28.80000","2.39990","3219.89"
"28.90000","2.40826","3228.7"
"29.00000","2.41663","3237.65"
"29.10000","2.42509","3246.24"
"29.20000","2.43356","3254.94"
"29.30000","2.44203","3263.43"
"29.40000","2.45029","3271.13"
"29.50000","2.45816","3279.06"
"29.60000","2.46642","3287.76"
"29.70000","2.47509","3297.13"
"29.80000","2.48345","3305.87"
"29.90000","2.49192","3314.87"
"30.00000","2.50059","3322.3"
"30.10000","2.50875","3330.49"
"30.20000","2.51641","3337.34"
"30.30000","2.52468","3345.73"
"30.40000","2.53335","3354.72"
"30.50000","2.54202","3363.7"
"30.60000","2.55018","3371.07"
"30.70000","2.55855","3230.92"
"30.80000","2.56671","3241.63"
"30.90000","2.57487","3248.55"
"31.00000","2.58324","3255.8"
"31.10000","2.59191","3263.85"
"31.20000","2.60058","3272.61"
"31.30000","2.60864","3280.59"
"31.40000","2.61680","3288.02"
"31.50000","2.62517","3296.63"
"31.60000","2.63344","3304.4"
"31.70000","2.64170","3312.73"
"31.80000","2.65017","3320.07"
"31.90000","2.65863","3327.29"
"32.00000","2.66700","3336.09"
"32.10000","2.67506","3343.49"
"32.20000","2.68303","3351.08"
"32.30000","2.69119","3357.85"
"32.40000","2.69976","3365.8"
"32.50000","2.70853","3373.66"
"32.60000","2.71709","3380.95"
"32.70000","2.72556","3387.72"
"32.80000","2.73372","3394.61"
"32.90000","2.74159","3401.92"
"33.00000","2.74985","3408.27"
"33.10000","2.75842","3415.91"
"33.20000","2.76709","3423.46"
"33.30000","2.77566","3431.18"
"33.40000","2.78382","3437.55"
"33.50000","2.79168","3443.11"
"33.60000","2.79964","3448.76"
"33.70000","2.80811","3456.7"
"33.80000","2.81668","3463.02"
"33.90000","2.82525","3470.56"
"34.00000","2.83361","3477.85"
"34.10000","2.84198","3483.9"
"34.20000","2.85004","3490.1"
"34.30000","2.85831","3496.1"
"34.40000","2.86677","3501.72"
"34.50000","2.87504","3508.51"
"34.60000","2.88330","3514.47"
"34.70000","2.89187","3521.83"
"34.80000","2.90024","3527.86"
"34.90000","2.90830","3533.19"
"35.00000","2.91626","3538.12"
"35.10000","2.92473","3543.79"
"35.20000","2.93350","3551.24"
"35.30000","2.94196","3556.74"
"35.40000","2.95023","3562.81"
"35.50000","2.95870","3568.62"
"35.60000","2.96676","3574.24"
"35.70000","2.97482","3579.13"
"35.80000","2.98339","3584.37"
"35.90000","2.99216","3591.21"
"36.00000","3.00053","3597.15"
"36.10000","3.00849","3602.96"
"36.20000","3.01685","3606.33"
"36.30000","3.02522","3612.36"
"36.40000","3.03349","3616.83"
"36.50000","3.04165","3621.85"
"36.60000","3.05022","3627.34"
"36.70000","3.05858","3631.88"
"36.80000","3.06685","3636.8"
"36.90000","3.07491","3640.46"
"37.00000","3.08318","3645.69"
"37.10000","3.09154","3650.31"
"37.20000","3.09971","3653.84"
"37.30000","3.10848","3659.03"
"37.40000","3.11714","3663.62"
"37.50000","3.12531","3667.81"
"37.60000","3.13337","3672.08"
"37.70000","3.14133","3674.88"
"37.80000","3.14960","3679.01"
"37.90000","3.15847","3683.54"
"38.00000","3.16684","3687.72"
"38.10000","3.17530","3691.08"
"38.20000","3.18357","3695.25"
"38.30000","3.19163","3699.73"
"38.40000","3.20010","3703.03"
"38.50000","3.20836","3706.55"
"38.60000","3.21673","3710.38"
"38.70000","3.22519","3713.08"
"38.80000","3.23386","3717.08"
"38.90000","3.24213","3720.7"
"39.00000","3.25009","3723.18"
"39.10000","3.25825","3724.48"
"39.20000","3.26662","3727.2"
"39.30000","3.27499","3730.61"
"39.40000","3.28335","3732.82"
"39.50000","3.29202","3736.34"
"39.60000","3.30039","3738.56"
"39.70000","3.30825","3739.9"
"39.80000","3.31631","3740.85"
"39.90000","3.32488","3743.47"
"40.00000","3.33355","3743.92"
"40.10000","3.34181","3746.06"
"40.20000","3.35008","3746.18"
"40.30000","3.35834","3746.8"
"40.40000","3.36631","3745.7"
"40.50000","3.37457","3745.68"
"40.60000","3.38354","3744.14"
"40.70000","3.39241","3742.25"
"40.80000","3.40027","3737.39"
"40.90000","3.40854","3727.39"
"41.00000","3.41711","3704.16"
"41.10000","3.42537","3550.95"
"41.20000","3.43354","3424.83"
"41.30000","3.44210","3369.72"
"41.40000","3.45057","3330.17"
"41.50000","3.45883","3293.43"
"41.60000","3.46700","3249.86"
"41.66400","3.47214","2985.89"
"41.66800","3.47254","2715.14"
"41.67200","3.47284","2386.17"
"41.67600","3.47325","2027.78"
"41.67800","3.47355","1848.53"