File: Data_Processing/Tensile-Data/Sequence_26.csv
General : Start date,"10/29/2024 10:10 AM"
General : End date,"10/29/2024 10:11 AM"
Specimen notes : Specimen note 1,"Day 2, purple, 230, batch 1, seq 26"
Test : Rate 1,"5.00000",mm/min

Time,Extension,Load
(s),(mm),(N)
"0.00000","0.00000","0.61863"
"0.10000","0.00141","0.26761"
"0.20000","0.01038","11.16957"
"0.30000","0.02318","37.52891"
"0.40000","0.03185","54.43659"
"0.50000","0.04072","69.76939"
"0.60000","0.04989","84.87653"
"0.70000","0.05856","99.07242"
"0.80000","0.06703","112.583"
"0.90000","0.07499","125.923"
"1.00000","0.08326","138.335"
"1.10000","0.09172","152.962"
"1.20000","0.10049","167.483"
"1.30000","0.10896","182.081"
"1.40000","0.11702","195.48"
"1.50000","0.12529","209.417"
"1.60000","0.13345","223.249"
"1.70000","0.14172","237.301"
"1.80000","0.15028","251.154"
"1.90000","0.15875","264.825"
"2.00000","0.16691","279.658"
"2.10000","0.17508","292.123"
"2.20000","0.18344","306.244"
"2.30000","0.19181","319.813"
"2.40000","0.19997","332.959"
"2.50000","0.20824","347.414"
"2.60000","0.21691","360.99"
"2.70000","0.22548","375.517"
"2.80000","0.23364","388.511"
"2.90000","0.24170","401.007"
"3.00000","0.24987","414.652"
"3.10000","0.25813","427.962"
"3.20000","0.26670","441.331"
"3.30000","0.27537","454.528"
"3.40000","0.28394","467.594"
"3.50000","0.29210","480.354"
"3.60000","0.29996","492.891"
"3.70000","0.30823","505.432"
"3.80000","0.31679","518.707"
"3.90000","0.32546","531.891"
"4.00000","0.33393","545.03"
"4.10000","0.34209","557.289"
"4.20000","0.35026","569.323"
"4.30000","0.35842","582.305"
"4.40000","0.36669","594.085"
"4.50000","0.37515","607.237"
"4.60000","0.38362","620.562"
"4.70000","0.39199","633.565"
"4.80000","0.40035","644.709"
"4.90000","0.40882","657.889"
"5.00000","0.41678","669.206"
"5.10000","0.42495","681.697"
"5.20000","0.43351","693.798"
"5.30000","0.44198","705.86"
"5.40000","0.45035","717.877"
"5.50000","0.45861","730.014"
"5.60000","0.46678","740.417"
"5.70000","0.47484","753.173"
"5.80000","0.48310","764.272"
"5.90000","0.49177","776.958"
"6.00000","0.50044","788.835"
"6.10000","0.50881","800.602"
"6.20000","0.51717","812.486"
"6.30000","0.52524","824.091"
"6.40000","0.53340","834.682"
"6.50000","0.54177","845.946"
"6.60000","0.55033","858.017"
"6.70000","0.55870","869.69"
"6.80000","0.56696","881.101"
"6.90000","0.57523","892.743"
"7.00000","0.58339","903.451"
"7.10000","0.59166","913.53"
"7.20000","0.60002","924.458"
"7.30000","0.60849","936.106"
"7.40000","0.61706","947.486"
"7.50000","0.62522","958.969"
"7.60000","0.63369","968.898"
"7.70000","0.64185","980.15"
"7.80000","0.65002","991.399"
"7.90000","0.65828","1001.49"
"8.00000","0.66685","1013.15"
"8.10000","0.67542","1023.38"
"8.20000","0.68368","1033.23"
"8.30000","0.69175","1044.07"
"8.40000","0.69991","1052.69"
"8.50000","0.70828","1062.73"
"8.60000","0.71674","1073.19"
"8.70000","0.72521","1083.36"
"8.80000","0.73358","1093.01"
"8.90000","0.74204","1102"
"9.00000","0.75021","1111.84"
"9.10000","0.75827","1120.98"
"9.20000","0.76684","1130.01"
"9.30000","0.77510","1139.59"
"9.40000","0.78337","1150"
"9.50000","0.79194","1159.37"
"9.60000","0.80040","1168.72"
"9.70000","0.80847","1178.2"
"9.80000","0.81673","1187.04"
"9.90000","0.82510","1196.63"
"10.00000","0.83356","1206.4"
"10.10000","0.84193","1216.03"
"10.20000","0.85019","1226.46"
"10.30000","0.85876","1235.81"
"10.40000","0.86703","1245.24"
"10.50000","0.87489","1254.08"
"10.60000","0.88325","1263.49"
"10.70000","0.89212","1273.85"
"10.80000","0.90059","1283.94"
"10.90000","0.90865","1293.12"
"11.00000","0.91692","1301.85"
"11.10000","0.92518","1311.08"
"11.20000","0.93325","1319.2"
"11.30000","0.94161","1327.39"
"11.40000","0.95028","1337.41"
"11.50000","0.95865","1346.62"
"11.60000","0.96701","1356"
"11.70000","0.97518","1365.67"
"11.80000","0.98324","1373.34"
"11.90000","0.99151","1382.45"
"12.00000","0.99977","1391.79"
"12.10000","1.00844","1402.28"
"12.20000","1.01711","1411.46"
"12.30000","1.02537","1420.49"
"12.40000","1.03364","1429.31"
"12.50000","1.04160","1438.41"
"12.60000","1.04977","1447.28"
"12.70000","1.05843","1456.84"
"12.80000","1.06700","1467.17"
"12.90000","1.07557","1475.97"
"13.00000","1.08373","1484.1"
"13.10000","1.09170","1492.85"
"13.20000","1.09996","1501.6"
"13.30000","1.10823","1511.62"
"13.40000","1.11689","1520.14"
"13.50000","1.12546","1529.33"
"13.60000","1.13393","1539.65"
"13.70000","1.14229","1548.05"
"13.80000","1.15016","1557"
"13.90000","1.15842","1565.52"
"14.00000","1.16679","1574.87"
"14.10000","1.17505","1584.08"
"14.20000","1.18291","1593.21"
"14.30000","1.19138","1600.94"
"14.40000","1.19995","1609.89"
"14.50000","1.20811","1618.56"
"14.60000","1.21638","1627.63"
"14.70000","1.22495","1635.7"
"14.80000","1.23361","1645.19"
"14.90000","1.24198","1653.16"
"15.00000","1.25034","1661.62"
"15.10000","1.25871","1669.64"
"15.20000","1.26667","1678.25"
"15.30000","1.27474","1686.47"
"15.40000","1.28341","1695.1"
"15.50000","1.29217","1703.18"
"15.60000","1.30044","1712.31"
"15.70000","1.30850","1720.07"
"15.80000","1.31677","1728.18"
"15.90000","1.32523","1737.32"
"16.00000","1.33360","1745.71"
"16.10000","1.34207","1753.65"
"16.20000","1.35043","1761.9"
"16.30000","1.35870","1770.47"
"16.40000","1.36706","1778.69"
"16.50000","1.37513","1787.01"
"16.60000","1.38339","1794.42"
"16.70000","1.39166","1803.58"
"16.80000","1.40002","1812.13"
"16.90000","1.40869","1820.36"
"17.00000","1.41716","1828.32"
"17.10000","1.42542","1836.88"
"17.20000","1.43349","1844.6"
"17.30000","1.44135","1851.87"
"17.40000","1.45002","1861.14"
"17.50000","1.45858","1869.9"
"17.60000","1.46715","1877.62"
"17.70000","1.47532","1885.56"
"17.80000","1.48338","1894.04"
"17.90000","1.49144","1902.47"
"18.00000","1.49991","1910.13"
"18.10000","1.50848","1918.53"
"18.20000","1.51705","1926.7"
"18.30000","1.52541","1933.99"
"18.40000","1.53378","1943.58"
"18.50000","1.54194","1950.8"
"18.60000","1.54980","1958.97"
"18.70000","1.55827","1966.86"
"18.80000","1.56694","1975.26"
"18.90000","1.57510","1983.25"
"19.00000","1.58367","1992.1"
"19.10000","1.59224","2000.77"
"19.20000","1.60030","2007.95"
"19.30000","1.60826","2015.84"
"19.40000","1.61663","2024.57"
"19.50000","1.62520","2032.38"
"19.60000","1.63376","2040.58"
"19.70000","1.64203","2048.06"
"19.80000","1.65029","2056.5"
"19.90000","1.65846","2065.14"
"20.00000","1.66652","2072.63"
"20.10000","1.67489","2080.44"
"20.20000","1.68356","2088.02"
"20.30000","1.69222","2096.94"
"20.40000","1.70029","2105.22"
"20.50000","1.70835","2112.56"
"20.60000","1.71662","2119.69"
"20.70000","1.72498","2127.89"
"20.80000","1.73335","2136.61"
"20.90000","1.74181","2144.28"
"21.00000","1.75028","2152.99"
"21.10000","1.75855","2161.45"
"21.20000","1.76691","2169.27"
"21.30000","1.77498","2177.57"
"21.40000","1.78334","2184.66"
"21.50000","1.79191","2193.69"
"21.60000","1.80058","2202.03"
"21.70000","1.80884","2209.61"
"21.80000","1.81721","2217.88"
"21.90000","1.82537","2225.55"
"22.00000","1.83344","2233.34"
"22.10000","1.84160","2240.68"
"22.20000","1.84997","2249.02"
"22.30000","1.85874","2258.01"
"22.40000","1.86720","2265.5"
"22.50000","1.87537","2274.41"
"22.60000","1.88343","2282.17"
"22.70000","1.89159","2290.62"
"22.80000","1.89996","2297.97"
"22.90000","1.90843","2305.86"
"23.00000","1.91689","2314.65"
"23.10000","1.92526","2321.89"
"23.20000","1.93363","2330.36"
"23.30000","1.94179","2337.83"
"23.40000","1.94995","2345.18"
"23.50000","1.95822","2352.41"
"23.60000","1.96689","2361.39"
"23.70000","1.97525","2369.51"
"23.80000","1.98372","2376.49"
"23.90000","1.99209","2384.42"
"24.00000","2.00035","2392.59"
"24.10000","2.00821","2400.46"
"24.20000","2.01648","2408.09"
"24.30000","2.02525","2416.53"
"24.40000","2.03371","2424.59"
"24.50000","2.04198","2431.82"
"24.60000","2.05034","2440.65"
"24.70000","2.05851","2448.75"
"24.80000","2.06667","2456.73"
"24.90000","2.07504","2464.68"
"25.00000","2.08381","2472.57"
"25.10000","2.09217","2481.07"
"25.20000","2.10014","2488.24"
"25.30000","2.10840","2497"
"25.40000","2.11667","2503.75"
"25.50000","2.12483","2511.76"
"25.60000","2.13330","2519.39"
"25.70000","2.14197","2528"
"25.80000","2.15043","2535.39"
"25.90000","2.15870","2542.92"
"26.00000","2.16666","2550.03"
"26.10000","2.17493","2558.06"
"26.20000","2.18329","2565.88"
"26.30000","2.19156","2575.11"
"26.40000","2.20022","2582.22"
"26.50000","2.20879","2590.88"
"26.60000","2.21716","2598.54"
"26.70000","2.22532","2606.11"
"26.80000","2.23328","2613.62"
"26.90000","2.24165","2621.44"
"27.00000","2.25022","2630.26"
"27.10000","2.25909","2638.19"
"27.20000","2.26725","2646.28"
"27.30000","2.27532","2653.23"
"27.40000","2.28328","2659.87"
"27.50000","2.29144","2668.7"
"27.60000","2.29991","2675.54"
"27.70000","2.30858","2683.75"
"27.80000","2.31704","2692.2"
"27.90000","2.32541","2699.3"
"28.00000","2.33357","2707.96"
"28.10000","2.34174","2715.78"
"28.20000","2.35000","2723.15"
"28.30000","2.35837","2730.41"
"28.40000","2.36663","2738.92"
"28.50000","2.37510","2747.03"
"28.60000","2.38377","2756.33"
"28.70000","2.39224","2763.63"
"28.80000","2.40000","2770.45"
"28.90000","2.40816","2778.64"
"29.00000","2.41673","2786.6"
"29.10000","2.42540","2794.53"
"29.20000","2.43376","2800.8"
"29.30000","2.44203","2809.57"
"29.40000","2.45019","2816.32"
"29.50000","2.45816","2824.09"
"29.60000","2.46642","2831.61"
"29.70000","2.47499","2839.6"
"29.80000","2.48376","2846.96"
"29.90000","2.49202","2854.21"
"30.00000","2.49998","2862.42"
"30.10000","2.50855","2870.01"
"30.20000","2.51672","2877.04"
"30.30000","2.52518","2884.81"
"30.40000","2.53365","2892.05"
"30.50000","2.54212","2899.67"
"30.60000","2.55038","2908.18"
"30.70000","2.55865","2914.57"
"30.80000","2.56661","2921.94"
"30.90000","2.57487","2928.63"
"31.00000","2.58324","2935.94"
"31.10000","2.59171","2944.65"
"31.20000","2.60048","2951.72"
"31.30000","2.60894","2958.58"
"31.40000","2.61691","2965.42"
"31.50000","2.62487","2972.38"
"31.60000","2.63293","2979.7"
"31.70000","2.64160","2988.5"
"31.80000","2.65027","2995.75"
"31.90000","2.65863","3004.46"
"32.00000","2.66700","3011.77"
"32.10000","2.67526","3018.8"
"32.20000","2.68363","3026.57"
"32.30000","2.69190","3034.3"
"32.40000","2.70026","3041.13"
"32.50000","2.70873","3050.06"
"32.60000","2.71719","3056.56"
"32.70000","2.72566","3063.99"
"32.80000","2.73383","3072.44"
"32.90000","2.74169","3078.8"
"33.00000","2.74995","3085.05"
"33.10000","2.75852","3092.32"
"33.20000","2.76679","3100.28"
"33.30000","2.77525","3107.03"
"33.40000","2.78382","3114.66"
"33.50000","2.79188","3121.04"
"33.60000","2.79985","3127.91"
"33.70000","2.80811","3135.52"
"33.80000","2.81678","3143.36"
"33.90000","2.82535","3150.7"
"34.00000","2.83361","3156.68"
"34.10000","2.84198","3164.05"
"34.20000","2.85004","3171.69"
"34.30000","2.85821","3178.9"
"34.40000","2.86677","3186.27"
"34.50000","2.87544","3194.1"
"34.60000","2.88371","3201.31"
"34.70000","2.89187","3208.56"
"34.80000","2.90034","3215.22"
"34.90000","2.90870","3222.1"
"35.00000","2.91687","3229.27"
"35.10000","2.92523","3237.39"
"35.20000","2.93380","3242.64"
"35.30000","2.94217","3250.9"
"35.40000","2.95043","3258.35"
"35.50000","2.95870","3265.3"
"35.60000","2.96676","3272.1"
"35.70000","2.97492","3278.1"
"35.80000","2.98339","3285.78"
"35.90000","2.99196","3293.74"
"36.00000","3.00053","3300.22"
"36.10000","3.00879","3307.44"
"36.20000","3.01695","3314.88"
"36.30000","3.02502","3321.29"
"36.40000","3.03318","3327.81"
"36.50000","3.04155","3334.82"
"36.60000","3.05022","3342.92"
"36.70000","3.05858","3349.23"
"36.80000","3.06685","3356.09"
"36.90000","3.07491","3362.89"
"37.00000","3.08318","3369.9"
"37.10000","3.09164","3376.83"
"37.20000","3.10021","3383.89"
"37.30000","3.10868","3390.47"
"37.40000","3.11694","3397.72"
"37.50000","3.12551","3405.5"
"37.60000","3.13367","3412.28"
"37.70000","3.14184","3419.02"
"37.80000","3.15000","3424.9"
"37.90000","3.15847","3431.78"
"38.00000","3.16694","3439.9"
"38.10000","3.17550","3446.48"
"38.20000","3.18417","3453.91"
"38.30000","3.19193","3459.67"
"38.40000","3.19990","3467.28"
"38.50000","3.20836","3474.29"
"38.60000","3.21703","3480.74"
"38.70000","3.22540","3488.65"
"38.80000","3.23386","3495.11"
"38.90000","3.24203","3501.46"
"39.00000","3.24999","3508.45"
"39.10000","3.25815","3514.98"
"39.20000","3.26662","3522.85"
"39.30000","3.27539","3529.1"
"39.40000","3.28386","3535.3"
"39.50000","3.29172","3542.06"
"39.60000","3.29998","3549.3"
"39.70000","3.30835","3556.06"
"39.80000","3.31651","3562.76"
"39.90000","3.32508","3569.65"
"40.00000","3.33355","3576.23"
"40.10000","3.34191","3583.42"
"40.20000","3.35028","3589.87"
"40.30000","3.35834","3596.21"
"40.40000","3.36651","3602.03"
"40.50000","3.37467","3610.54"
"40.60000","3.38324","3616.39"
"40.70000","3.39201","3624.45"
"40.80000","3.40058","3631.02"
"40.90000","3.40884","3637.04"
"41.00000","3.41690","3643"
"41.10000","3.42487","3649.21"
"41.20000","3.43333","3655.88"
"41.30000","3.44200","3662.73"
"41.40000","3.45057","3668.92"
"41.50000","3.45883","3675.99"
"41.60000","3.46670","3681.82"
"41.70000","3.47466","3686.64"
"41.80000","3.48323","3693.11"
"41.90000","3.49169","3700.44"
"42.00000","3.50036","3707.04"
"42.10000","3.50873","3712.8"
"42.20000","3.51699","3719.57"
"42.30000","3.52516","3725.93"
"42.40000","3.53322","3731.6"
"42.50000","3.54159","3738.21"
"42.60000","3.55015","3744.32"
"42.70000","3.55842","3750.52"
"42.80000","3.56689","3757.23"
"42.90000","3.57545","3762.95"
"43.00000","3.58372","3769.34"
"43.10000","3.59158","3774.55"
"43.20000","3.59995","3779.79"
"43.30000","3.60861","3786.84"
"43.40000","3.61728","3793.14"
"43.50000","3.62535","3797.97"
"43.60000","3.63371","3804.11"
"43.70000","3.64208","3810.15"
"43.80000","3.65014","3816.12"
"43.90000","3.65830","3821.63"
"44.00000","3.66697","3828.31"
"44.10000","3.67564","3833.91"
"44.20000","3.68370","3839.66"
"44.30000","3.69167","3846.79"
"44.40000","3.70003","3851.09"
"44.50000","3.70860","3856.96"
"44.60000","3.71677","3861.94"
"44.70000","3.72523","3868.17"
"44.80000","3.73360","3873.44"
"44.90000","3.74186","3878.88"
"45.00000","3.75023","3884.74"
"45.10000","3.75829","3888.62"
"45.20000","3.76666","3894.61"
"45.30000","3.77492","3899.24"
"45.40000","3.78349","3905.31"
"45.50000","3.79216","3909.47"
"45.60000","3.80042","3915.67"
"45.70000","3.80859","3920.5"
"45.80000","3.81655","3923.98"
"45.90000","3.82482","3928.91"
"46.00000","3.83359","3934.55"
"46.10000","3.84225","3939.56"
"46.20000","3.85062","3944.56"
"46.30000","3.85878","3947.83"
"46.40000","3.86675","3952.95"
"46.50000","3.87491","3956.67"
"46.60000","3.88348","3961.67"
"46.70000","3.89194","3965.76"
"46.80000","3.90041","3969.87"
"46.90000","3.90878","3973.65"
"47.00000","3.91704","3976.62"
"47.10000","3.92521","3980.29"
"47.20000","3.93337","3983.72"
"47.30000","3.94174","3986.94"
"47.40000","3.95000","3989.97"
"47.50000","3.95827","3992.68"
"47.60000","3.96683","3996.47"
"47.70000","3.97540","3998.81"
"47.80000","3.98346","4001.68"
"47.90000","3.99153","4003.34"
"48.00000","3.99999","4005.49"
"48.10000","4.00866","4009.15"
"48.20000","4.01703","4010.81"
"48.30000","4.02529","4012.87"
"48.40000","4.03366","4014.06"
"48.50000","4.04182","4015.22"
"48.60000","4.04989","4015.51"
"48.70000","4.05835","4016.54"
"48.80000","4.06712","4017.52"
"48.90000","4.07559","4017.32"
"49.00000","4.08376","4016.76"
"49.10000","4.09192","4015.66"
"49.20000","4.10018","4014.13"
"49.30000","4.10845","4012.25"
"49.40000","4.11702","4010.7"
"49.50000","4.12558","4007.75"
"49.60000","4.13375","4003.36"
"49.70000","4.14201","3998.48"
"49.80000","4.15018","3991.72"
"49.90000","4.15814","3983.31"
"50.00000","4.16661","3973.76"
"50.10000","4.17487","3959.25"
"50.20000","4.18364","3941.69"
"50.30000","4.19221","3913.29"
"50.40000","4.20037","3863.92"
"50.46600","4.20582","3581.11"
"50.47000","4.20622","3250.93"
"50.47400","4.20662","2858.05"
"50.47800","4.20703","2423.95"
"50.48000","4.20733","2206.55"