File: Data_Processing/Tensile-Data/Sequence_31.csv
General : Start date,"10/29/2024 10:22 AM"
General : End date,"10/29/2024 10:23 AM"
Specimen notes : Specimen note 1,"Day 2, black, 230, batch 2, seq 31"
Test : Rate 1,"5.00000",mm/min

Time,Extension,Load
(s),(mm),(N)
"0.00000","0.00000","0.71787"
"0.10000","0.00131","0.39427"
"0.20000","0.00968","11.22807"
"0.30000","0.02328","36.97626"
"0.40000","0.03205","54.92603"
"0.50000","0.04042","68.36504"
"0.60000","0.04969","83.62576"
"0.70000","0.05866","97.53488"
"0.80000","0.06713","111.446"
"0.90000","0.07549","124.731"
"1.00000","0.08366","138.668"
"1.10000","0.09172","150.11"
"1.20000","0.10009","164.766"
"1.30000","0.10866","178.447"
"1.40000","0.11722","191.968"
"1.50000","0.12559","206.384"
"1.60000","0.13365","219.487"
"1.70000","0.14172","232.459"
"1.80000","0.14988","245.989"
"1.90000","0.15835","260.84"
"2.00000","0.16691","275.166"
"2.10000","0.17548","288.982"
"2.20000","0.18375","301.768"
"2.30000","0.19181","315.732"
"2.40000","0.19997","329.176"
"2.50000","0.20814","342.889"
"2.60000","0.21661","355.575"
"2.70000","0.22527","369.806"
"2.80000","0.23374","384.438"
"2.90000","0.24190","396.894"
"3.00000","0.25027","410.803"
"3.10000","0.25854","423.989"
"3.20000","0.26670","437.5"
"3.30000","0.27527","451.028"
"3.40000","0.28383","464.485"
"3.50000","0.29220","478.036"
"3.60000","0.30067","490.974"
"3.70000","0.30853","503.444"
"3.80000","0.31659","516.687"
"3.90000","0.32496","529.634"
"4.00000","0.33343","542.447"
"4.10000","0.34169","556.59"
"4.20000","0.35026","569.902"
"4.30000","0.35883","582.996"
"4.40000","0.36679","595.593"
"4.50000","0.37485","607.792"
"4.60000","0.38322","620.205"
"4.70000","0.39189","633.273"
"4.80000","0.40025","646.578"
"4.90000","0.40882","659.523"
"5.00000","0.41688","670.947"
"5.10000","0.42474","682.762"
"5.20000","0.43291","695.29"
"5.30000","0.44168","708.441"
"5.40000","0.45035","721.201"
"5.50000","0.45861","733.015"
"5.60000","0.46647","745.544"
"5.70000","0.47514","757.993"
"5.80000","0.48361","770.754"
"5.90000","0.49197","783.237"
"6.00000","0.50034","794.262"
"6.10000","0.50891","806.833"
"6.20000","0.51727","818.828"
"6.30000","0.52544","829.784"
"6.40000","0.53360","841.608"
"6.50000","0.54187","852.049"
"6.60000","0.55013","864.246"
"6.70000","0.55850","875.132"
"6.80000","0.56696","885.867"
"6.90000","0.57543","897.753"
"7.00000","0.58370","908.456"
"7.10000","0.59176","920.338"
"7.20000","0.60002","931.634"
"7.30000","0.60829","942.58"
"7.40000","0.61666","954.028"
"7.50000","0.62522","965.313"
"7.60000","0.63379","977.352"
"7.70000","0.64195","988.588"
"7.80000","0.64992","998.755"
"7.90000","0.65818","1008.88"
"8.00000","0.66655","1019.82"
"8.10000","0.67522","1030.87"
"8.20000","0.68368","1042.16"
"8.30000","0.69175","1051.67"
"8.40000","0.70001","1062.25"
"8.50000","0.70838","1073"
"8.60000","0.71664","1082.83"
"8.70000","0.72511","1092.91"
"8.80000","0.73348","1103.43"
"8.90000","0.74194","1113.9"
"9.00000","0.75061","1125.58"
"9.10000","0.75888","1134.45"
"9.20000","0.76674","1144.11"
"9.30000","0.77500","1153.89"
"9.40000","0.78337","1164.09"
"9.50000","0.79214","1174.97"
"9.60000","0.80030","1183.76"
"9.70000","0.80857","1194.17"
"9.80000","0.81703","1204.92"
"9.90000","0.82500","1213.98"
"10.00000","0.83316","1224.15"
"10.10000","0.84183","1233.77"
"10.20000","0.85040","1244.42"
"10.30000","0.85866","1254.51"
"10.40000","0.86672","1262.65"
"10.50000","0.87499","1272.59"
"10.60000","0.88315","1281.04"
"10.70000","0.89142","1290.96"
"10.80000","0.90019","1300.31"
"10.90000","0.90855","1310.61"
"11.00000","0.91672","1319.45"
"11.10000","0.92508","1328.47"
"11.20000","0.93335","1336.71"
"11.30000","0.94161","1345.94"
"11.40000","0.95008","1354.92"
"11.50000","0.95855","1364.72"
"11.60000","0.96701","1373.42"
"11.70000","0.97548","1381.45"
"11.80000","0.98375","1389.6"
"11.90000","0.99171","1397.39"
"12.00000","0.99977","1405.91"
"12.10000","1.00804","1412.9"
"12.20000","1.01711","1421.6"
"12.30000","1.02568","1430.79"
"12.40000","1.03384","1438.63"
"12.50000","1.04180","1446.38"
"12.60000","1.04997","1454.87"
"12.70000","1.05823","1462.46"
"12.80000","1.06660","1470.97"
"12.90000","1.07527","1479.8"
"13.00000","1.08373","1489.22"
"13.10000","1.09220","1498.02"
"13.20000","1.10036","1505.72"
"13.30000","1.10823","1513.11"
"13.40000","1.11659","1519.91"
"13.50000","1.12526","1529.51"
"13.60000","1.13332","1538.4"
"13.70000","1.14189","1546.36"
"13.80000","1.15056","1555.14"
"13.90000","1.15872","1562.65"
"14.00000","1.16638","1570.39"
"14.10000","1.17465","1578.73"
"14.20000","1.18332","1587.08"
"14.30000","1.19199","1595.93"
"14.40000","1.20055","1603.92"
"14.50000","1.20862","1611.67"
"14.60000","1.21688","1620.91"
"14.70000","1.22495","1628.33"
"14.80000","1.23331","1637.15"
"14.90000","1.24198","1645.34"
"15.00000","1.25055","1654.1"
"15.10000","1.25871","1663.17"
"15.20000","1.26677","1670.22"
"15.30000","1.27524","1678.57"
"15.40000","1.28341","1686.96"
"15.50000","1.29177","1695.28"
"15.60000","1.30024","1703.04"
"15.70000","1.30870","1712.12"
"15.80000","1.31697","1721.23"
"15.90000","1.32513","1728.09"
"16.00000","1.33310","1735.7"
"16.10000","1.34136","1745.16"
"16.20000","1.34973","1753.24"
"16.30000","1.35850","1761.98"
"16.40000","1.36716","1771.7"
"16.50000","1.37563","1779.71"
"16.60000","1.38359","1788.21"
"16.70000","1.39156","1795.55"
"16.80000","1.39982","1804.1"
"16.90000","1.40859","1813.3"
"17.00000","1.41736","1822.18"
"17.10000","1.42552","1829.75"
"17.20000","1.43369","1838.3"
"17.30000","1.44175","1846.38"
"17.40000","1.44992","1854.64"
"17.50000","1.45818","1863.46"
"17.60000","1.46685","1870.76"
"17.70000","1.47532","1879.18"
"17.80000","1.48378","1887.86"
"17.90000","1.49215","1896.8"
"18.00000","1.50021","1904.92"
"18.10000","1.50848","1913.13"
"18.20000","1.51674","1921.14"
"18.30000","1.52511","1929.98"
"18.40000","1.53358","1937.43"
"18.50000","1.54214","1946.36"
"18.60000","1.55041","1954.62"
"18.70000","1.55827","1962.61"
"18.80000","1.56643","1970.45"
"18.90000","1.57490","1979.06"
"19.00000","1.58357","1987.24"
"19.10000","1.59204","1996.2"
"19.20000","1.60040","2004.32"
"19.30000","1.60857","2011.64"
"19.40000","1.61663","2020.08"
"19.50000","1.62479","2028.08"
"19.60000","1.63346","2035.9"
"19.70000","1.64213","2044.95"
"19.80000","1.65029","2051.88"
"19.90000","1.65846","2059.63"
"20.00000","1.66682","2067.07"
"20.10000","1.67509","2075.69"
"20.20000","1.68335","2083.46"
"20.30000","1.69192","2091.75"
"20.40000","1.70059","2100.63"
"20.50000","1.70886","2108.29"
"20.60000","1.71702","2115.7"
"20.70000","1.72508","2123.46"
"20.80000","1.73315","2130.86"
"20.90000","1.74151","2138.77"
"21.00000","1.75008","2147.14"
"21.10000","1.75875","2155.65"
"21.20000","1.76721","2162.93"
"21.30000","1.77528","2171.07"
"21.40000","1.78344","2178.62"
"21.50000","1.79141","2186.32"
"21.60000","1.79977","2194.64"
"21.70000","1.80844","2202.74"
"21.80000","1.81701","2212.01"
"21.90000","1.82527","2219.5"
"22.00000","1.83354","2227.83"
"22.10000","1.84160","2235.29"
"22.20000","1.84987","2242.64"
"22.30000","1.85823","2250.78"
"22.40000","1.86700","2260.37"
"22.50000","1.87537","2268.11"
"22.60000","1.88383","2276.57"
"22.70000","1.89230","2283.97"
"22.80000","1.90016","2291.58"
"22.90000","1.90833","2299.63"
"23.00000","1.91689","2307.3"
"23.10000","1.92516","2315.71"
"23.20000","1.93352","2323.62"
"23.30000","1.94209","2331.3"
"23.40000","1.95056","2338.78"
"23.50000","1.95832","2346.56"
"23.60000","1.96638","2353.38"
"23.70000","1.97505","2362.04"
"23.80000","1.98372","2370.66"
"23.90000","1.99178","2378.77"
"24.00000","2.00025","2386.35"
"24.10000","2.00841","2393.97"
"24.20000","2.01638","2400.63"
"24.30000","2.02464","2409.25"
"24.40000","2.03341","2417.7"
"24.50000","2.04218","2426.08"
"24.60000","2.05034","2433.67"
"24.70000","2.05851","2442.22"
"24.80000","2.06687","2449.92"
"24.90000","2.07524","2457.39"
"25.00000","2.08371","2466.21"
"25.10000","2.09187","2473.86"
"25.20000","2.10044","2482.31"
"25.30000","2.10870","2490.28"
"25.40000","2.11697","2497.17"
"25.50000","2.12513","2504.91"
"25.60000","2.13340","2513.41"
"25.70000","2.14166","2520.92"
"25.80000","2.15023","2530.27"
"25.90000","2.15870","2537.57"
"26.00000","2.16716","2546.21"
"26.10000","2.17533","2553.73"
"26.20000","2.18329","2560"
"26.30000","2.19135","2567.16"
"26.40000","2.19992","2576.17"
"26.50000","2.20869","2584.18"
"26.60000","2.21706","2591.92"
"26.70000","2.22522","2599.58"
"26.80000","2.23328","2606.97"
"26.90000","2.24155","2614.38"
"27.00000","2.24981","2623.18"
"27.10000","2.25838","2630.65"
"27.20000","2.26695","2640.32"
"27.30000","2.27521","2647.39"
"27.40000","2.28368","2654.91"
"27.50000","2.29205","2663.19"
"27.60000","2.30001","2669.68"
"27.70000","2.30838","2678.44"
"27.80000","2.31694","2686.97"
"27.90000","2.32531","2695.3"
"28.00000","2.33388","2702.92"
"28.10000","2.34234","2710.64"
"28.20000","2.35041","2718.22"
"28.30000","2.35827","2725.55"
"28.40000","2.36663","2732.74"
"28.50000","2.37540","2741.82"
"28.60000","2.38377","2748.93"
"28.70000","2.39193","2756.53"
"28.80000","2.40020","2763.9"
"28.90000","2.40846","2772.07"
"29.00000","2.41663","2780.19"
"29.10000","2.42499","2787.09"
"29.20000","2.43376","2796.48"
"29.30000","2.44233","2804.31"
"29.40000","2.45009","2811.23"
"29.50000","2.45826","2818.57"
"29.60000","2.46662","2826.92"
"29.70000","2.47479","2834.14"
"29.80000","2.48325","2841.78"
"29.90000","2.49202","2850.56"
"30.00000","2.50039","2857.84"
"30.10000","2.50875","2865.88"
"30.20000","2.51682","2872.97"
"30.30000","2.52478","2880.69"
"30.40000","2.53325","2888.1"
"30.50000","2.54181","2897.27"
"30.60000","2.55028","2904.89"
"30.70000","2.55885","2911.97"
"30.80000","2.56711","2920.09"
"30.90000","2.57508","2926.58"
"31.00000","2.58314","2934.7"
"31.10000","2.59161","2941.75"
"31.20000","2.60027","2950.95"
"31.30000","2.60884","2957.97"
"31.40000","2.61731","2965.1"
"31.50000","2.62527","2973.17"
"31.60000","2.63333","2980.62"
"31.70000","2.64170","2988.37"
"31.80000","2.65017","2995.93"
"31.90000","2.65863","3003.93"
"32.00000","2.66710","3012.33"
"32.10000","2.67537","3019"
"32.20000","2.68363","3026.71"
"32.30000","2.69169","3033.75"
"32.40000","2.69976","3039.85"
"32.50000","2.70832","3048.31"
"32.60000","2.71659","3056.95"
"32.70000","2.72475","3063.71"
"32.80000","2.73342","3071.55"
"32.90000","2.74179","3079"
"33.00000","2.74985","3085.58"
"33.10000","2.75792","3093.43"
"33.20000","2.76668","3101.14"
"33.30000","2.77535","3108.74"
"33.40000","2.78372","3116.33"
"33.50000","2.79208","3123.74"
"33.60000","2.80035","3131.17"
"33.70000","2.80841","3137.98"
"33.80000","2.81658","3145.24"
"33.90000","2.82515","3152.24"
"34.00000","2.83381","3160.98"
"34.10000","2.84208","3168.26"
"34.20000","2.85014","3176.09"
"34.30000","2.85851","3183.81"
"34.40000","2.86677","3190.64"
"34.50000","2.87524","3197.7"
"34.60000","2.88361","3205.83"
"34.70000","2.89217","3213.79"
"34.80000","2.90044","3221.3"
"34.90000","2.90860","3228.68"
"35.00000","2.91677","3235.74"
"35.10000","2.92513","3243.47"
"35.20000","2.93330","3250.56"
"35.30000","2.94166","3257.45"
"35.40000","2.95023","3266.13"
"35.50000","2.95870","3273.55"
"35.60000","2.96696","3280.83"
"35.70000","2.97513","3288"
"35.80000","2.98309","3295.19"
"35.90000","2.99155","3302.32"
"36.00000","3.00053","3310.48"
"36.10000","3.00889","3317.79"
"36.20000","3.01706","3325.19"
"36.30000","3.02512","3331.7"
"36.40000","3.03328","3338.35"
"36.50000","3.04165","3345.31"
"36.60000","3.05012","3352.59"
"36.70000","3.05858","3360.44"
"36.80000","3.06695","3368.47"
"36.90000","3.07542","3375"
"37.00000","3.08358","3382.73"
"37.10000","3.09164","3388.78"
"37.20000","3.10011","3396.67"
"37.30000","3.10848","3403.74"
"37.40000","3.11664","3410.36"
"37.50000","3.12531","3418.56"
"37.60000","3.13388","3426.35"
"37.70000","3.14214","3433.18"
"37.80000","3.14990","3439.35"
"37.90000","3.15817","3447"
"38.00000","3.16684","3454.7"
"38.10000","3.17530","3462.59"
"38.20000","3.18357","3469.24"
"38.30000","3.19203","3476.64"
"38.40000","3.20020","3483.63"
"38.50000","3.20816","3491.09"
"38.60000","3.21653","3497.81"
"38.70000","3.22540","3506.12"
"38.80000","3.23396","3513.01"
"38.90000","3.24203","3520.05"
"39.00000","3.25009","3526.57"
"39.10000","3.25856","3532.99"
"39.20000","3.26672","3540.05"
"39.30000","3.27499","3547.19"
"39.40000","3.28365","3554.47"
"39.50000","3.29202","3561.21"
"39.60000","3.30029","3568.23"
"39.70000","3.30865","3574.69"
"39.80000","3.31661","3581.09"
"39.90000","3.32478","3587.29"
"40.00000","3.33335","3595.19"
"40.10000","3.34212","3602.8"
"40.20000","3.35048","3609.31"
"40.30000","3.35875","3615.92"
"40.40000","3.36681","3623.27"
"40.50000","3.37487","3629.31"
"40.60000","3.38314","3636.13"
"40.70000","3.39181","3643.57"
"40.80000","3.40058","3650.31"
"40.90000","3.40894","3657.1"
"41.00000","3.41701","3663.57"
"41.10000","3.42517","3670.44"
"41.20000","3.43333","3676.59"
"41.30000","3.44160","3683.52"
"41.40000","3.45017","3690.69"
"41.50000","3.45863","3697.75"
"41.60000","3.46700","3705.78"
"41.70000","3.47557","3712.49"
"41.80000","3.48373","3718.07"
"41.90000","3.49159","3724.68"
"42.00000","3.50006","3730.9"
"42.10000","3.50853","3737.44"
"42.20000","3.51679","3744.1"
"42.30000","3.52536","3750.2"
"42.40000","3.53383","3756.52"
"42.50000","3.54189","3762.94"
"42.60000","3.54975","3768.2"
"42.70000","3.55822","3774"
"42.80000","3.56699","3781.26"
"42.90000","3.57535","3787.9"
"43.00000","3.58362","3793.42"
"43.10000","3.59168","3799.21"
"43.20000","3.60005","3806.26"
"43.30000","3.60811","3811.97"
"43.40000","3.61668","3817.07"
"43.50000","3.62545","3824.97"
"43.60000","3.63381","3830.19"
"43.70000","3.64177","3835.94"
"43.80000","3.64984","3841.29"
"43.90000","3.65820","3847.79"
"44.00000","3.66677","3854.08"
"44.10000","3.67524","3859.05"
"44.20000","3.68370","3864.72"
"44.30000","3.69217","3872.17"
"44.40000","3.70044","3876.74"
"44.50000","3.70850","3882.18"
"44.60000","3.71677","3887.36"
"44.70000","3.72503","3893.78"
"44.80000","3.73330","3899.19"
"44.90000","3.74186","3905.09"
"45.00000","3.75043","3910.2"
"45.10000","3.75880","3915.58"
"45.20000","3.76686","3919.87"
"45.30000","3.77492","3924.85"
"45.40000","3.78329","3929.09"
"45.50000","3.79196","3934.21"
"45.60000","3.80073","3939.43"
"45.70000","3.80889","3943.56"
"45.80000","3.81685","3947.91"
"45.90000","3.82502","3951.3"
"46.00000","3.83318","3955.32"
"46.10000","3.84175","3958.94"
"46.20000","3.85032","3963.99"
"46.30000","3.85868","3966.94"
"46.40000","3.86685","3970.07"
"46.50000","3.87511","3973.06"
"46.60000","3.88318","3975.58"
"46.70000","3.89154","3978.06"
"46.80000","3.90021","3981.11"
"46.90000","3.90837","3982.91"
"47.00000","3.91684","3985.4"
"47.10000","3.92561","3986.91"
"47.20000","3.93387","3987.97"
"47.30000","3.94174","3986.96"
"47.40000","3.94990","3986.26"
"47.50000","3.95837","3985.81"
"47.60000","3.96714","3985.01"
"47.70000","3.97540","3982.41"
"47.80000","3.98377","3978.93"
"47.90000","3.99213","3975.06"
"48.00000","4.00020","3968.82"
"48.10000","4.00846","3961.28"
"48.20000","4.01683","3952.48"
"48.30000","4.02539","3940.36"
"48.40000","4.03356","3924.24"
"48.50000","4.04162","3901.73"
"48.60000","4.05009","3868.53"
"48.70000","4.05825","3800.48"
"48.74000","4.06158","3412.84"
"48.74400","4.06198","3055.53"
"48.74800","4.06239","2643.23"
"48.75200","4.06279","2210.31"