File: Data_Processing/Tensile-Data/Sequence_58.csv
General : Start date,"11/5/2024 8:50 AM"
General : End date,"11/5/2024 8:51 AM"
Specimen notes : Specimen note 1,"Day 3, blue, 230, batch 18, seq 58"
Test : Rate 1,"5.00000",mm/min

Time,Extension,Load
(s),(mm),(N)
"0.00000","0.00000","0.04839"
"0.10000","0.00131","-0.96157"
"0.20000","0.01028","11.30294"
"0.30000","0.02338","37.33398"
"0.40000","0.03215","55.31901"
"0.50000","0.04092","71.15404"
"0.60000","0.04999","87.44352"
"0.70000","0.05846","101.626"
"0.80000","0.06683","115.722"
"0.90000","0.07509","130.132"
"1.00000","0.08336","144.939"
"1.10000","0.09192","158.78"
"1.20000","0.10059","173.346"
"1.30000","0.10906","186.555"
"1.40000","0.11722","200.298"
"1.50000","0.12529","212.865"
"1.60000","0.13345","227.235"
"1.70000","0.14182","238.74"
"1.80000","0.15028","253.086"
"1.90000","0.15865","266.45"
"2.00000","0.16732","279.988"
"2.10000","0.17558","294.09"
"2.20000","0.18344","307.292"
"2.30000","0.19161","320.14"
"2.40000","0.20008","333.024"
"2.50000","0.20864","347.531"
"2.60000","0.21711","360.492"
"2.70000","0.22548","374.336"
"2.80000","0.23364","387.884"
"2.90000","0.24160","401.612"
"3.00000","0.24977","415.15"
"3.10000","0.25843","428.249"
"3.20000","0.26710","441.761"
"3.30000","0.27547","454.435"
"3.40000","0.28363","466.564"
"3.50000","0.29200","480.382"
"3.60000","0.30016","492.823"
"3.70000","0.30843","504.786"
"3.80000","0.31690","517.979"
"3.90000","0.32546","531.873"
"4.00000","0.33383","544.398"
"4.10000","0.34199","556.596"
"4.20000","0.35046","569.958"
"4.30000","0.35852","582.598"
"4.40000","0.36679","595.49"
"4.50000","0.37515","607.112"
"4.60000","0.38372","619.849"
"4.70000","0.39209","633.454"
"4.80000","0.40035","645.811"
"4.90000","0.40852","657.449"
"5.00000","0.41658","669.325"
"5.10000","0.42495","681.34"
"5.20000","0.43361","693.758"
"5.30000","0.44218","706.361"
"5.40000","0.45055","718.557"
"5.50000","0.45841","729.494"
"5.60000","0.46647","740.848"
"5.70000","0.47484","754.019"
"5.80000","0.48351","767.342"
"5.90000","0.49207","778.721"
"6.00000","0.50024","789.189"
"6.10000","0.50840","801.74"
"6.20000","0.51677","813.593"
"6.30000","0.52513","826.032"
"6.40000","0.53340","836.29"
"6.50000","0.54187","848.16"
"6.60000","0.55043","860.622"
"6.70000","0.55880","872.214"
"6.80000","0.56717","882.876"
"6.90000","0.57543","894.374"
"7.00000","0.58360","905.444"
"7.10000","0.59186","915.917"
"7.20000","0.60043","927.282"
"7.30000","0.60879","938.419"
"7.40000","0.61706","949.104"
"7.50000","0.62542","958.696"
"7.60000","0.63359","969.507"
"7.70000","0.64165","980.348"
"7.80000","0.64992","990.331"
"7.90000","0.65848","1001.38"
"8.00000","0.66695","1011.82"
"8.10000","0.67542","1022.19"
"8.20000","0.68368","1032.99"
"8.30000","0.69175","1042.71"
"8.40000","0.69991","1052.28"
"8.50000","0.70828","1062.68"
"8.60000","0.71705","1073.41"
"8.70000","0.72531","1083.5"
"8.80000","0.73327","1093.19"
"8.90000","0.74174","1103.93"
"9.00000","0.75031","1113.84"
"9.10000","0.75867","1123.57"
"9.20000","0.76674","1133.25"
"9.30000","0.77520","1143.48"
"9.40000","0.78387","1154.14"
"9.50000","0.79214","1164.27"
"9.60000","0.80040","1173.54"
"9.70000","0.80847","1182.6"
"9.80000","0.81663","1192.82"
"9.90000","0.82500","1202.23"
"10.00000","0.83356","1212.09"
"10.10000","0.84233","1222.59"
"10.20000","0.85050","1232.08"
"10.30000","0.85846","1240.56"
"10.40000","0.86662","1250.17"
"10.50000","0.87489","1259.83"
"10.60000","0.88336","1269.1"
"10.70000","0.89192","1278.22"
"10.80000","0.90029","1288.28"
"10.90000","0.90855","1297.31"
"11.00000","0.91662","1305.31"
"11.10000","0.92468","1314.53"
"11.20000","0.93315","1322.52"
"11.30000","0.94182","1331.54"
"11.40000","0.95008","1341.26"
"11.50000","0.95845","1351.05"
"11.60000","0.96701","1359.56"
"11.70000","0.97528","1367.48"
"11.80000","0.98344","1376.7"
"11.90000","0.99161","1384.24"
"12.00000","1.00018","1393.84"
"12.10000","1.00864","1402.53"
"12.20000","1.01721","1410.37"
"12.30000","1.02558","1419.12"
"12.40000","1.03354","1425.63"
"12.50000","1.04150","1433.42"
"12.60000","1.05007","1442.43"
"12.70000","1.05864","1451.3"
"12.80000","1.06700","1458.5"
"12.90000","1.07537","1466.9"
"13.00000","1.08373","1476.27"
"13.10000","1.09180","1483.83"
"13.20000","1.09986","1491.63"
"13.30000","1.10833","1500.76"
"13.40000","1.11699","1509.56"
"13.50000","1.12536","1515.98"
"13.60000","1.13353","1524.84"
"13.70000","1.14189","1533.13"
"13.80000","1.15036","1541.24"
"13.90000","1.15832","1548.79"
"14.00000","1.16669","1556.89"
"14.10000","1.17525","1565.37"
"14.20000","1.18372","1573.82"
"14.30000","1.19199","1580.68"
"14.40000","1.20015","1589.09"
"14.50000","1.20821","1596.08"
"14.60000","1.21648","1606.1"
"14.70000","1.22474","1613.94"
"14.80000","1.23371","1622.16"
"14.90000","1.24238","1630.18"
"15.00000","1.25034","1638.84"
"15.10000","1.25841","1646.74"
"15.20000","1.26677","1655.26"
"15.30000","1.27524","1663.77"
"15.40000","1.28371","1671.36"
"15.50000","1.29217","1678.5"
"15.60000","1.30054","1688.54"
"15.70000","1.30881","1697.03"
"15.80000","1.31677","1703.85"
"15.90000","1.32493","1711.66"
"16.00000","1.33340","1720.06"
"16.10000","1.34197","1729.33"
"16.20000","1.35043","1737.29"
"16.30000","1.35890","1744.87"
"16.40000","1.36696","1752.88"
"16.50000","1.37493","1761.42"
"16.60000","1.38319","1769.47"
"16.70000","1.39176","1778.75"
"16.80000","1.40033","1787.03"
"16.90000","1.40869","1794.85"
"17.00000","1.41726","1803.52"
"17.10000","1.42532","1811.01"
"17.20000","1.43308","1819.56"
"17.30000","1.44155","1827.36"
"17.40000","1.45022","1835.97"
"17.50000","1.45879","1844.14"
"17.60000","1.46715","1853.2"
"17.70000","1.47542","1859.68"
"17.80000","1.48368","1867.7"
"17.90000","1.49164","1874.8"
"18.00000","1.50011","1883.01"
"18.10000","1.50868","1891.7"
"18.20000","1.51715","1898.88"
"18.30000","1.52531","1906.92"
"18.40000","1.53358","1915.08"
"18.50000","1.54194","1922.01"
"18.60000","1.55021","1930.36"
"18.70000","1.55827","1937.56"
"18.80000","1.56684","1946.53"
"18.90000","1.57540","1954.68"
"19.00000","1.58367","1961.06"
"19.10000","1.59193","1969.56"
"19.20000","1.60020","1977.31"
"19.30000","1.60826","1984.69"
"19.40000","1.61663","1993.55"
"19.50000","1.62520","2001.9"
"19.60000","1.63376","2010.02"
"19.70000","1.64213","2016.99"
"19.80000","1.65019","2024.84"
"19.90000","1.65816","2032.23"
"20.00000","1.66652","2040.42"
"20.10000","1.67499","2048.81"
"20.20000","1.68356","2057.45"
"20.30000","1.69212","2066.09"
"20.40000","1.70049","2073.85"
"20.50000","1.70865","2080.44"
"20.60000","1.71672","2089"
"20.70000","1.72518","2096.9"
"20.80000","1.73365","2105.66"
"20.90000","1.74192","2112.91"
"21.00000","1.75038","2120.31"
"21.10000","1.75875","2128.31"
"21.20000","1.76681","2135.46"
"21.30000","1.77488","2143.28"
"21.40000","1.78314","2150.79"
"21.50000","1.79151","2157.67"
"21.60000","1.80007","2165.84"
"21.70000","1.80874","2174.4"
"21.80000","1.81711","2182.14"
"21.90000","1.82517","2190.21"
"22.00000","1.83313","2197.2"
"22.10000","1.84170","2205.09"
"22.20000","1.85047","2213.73"
"22.30000","1.85894","2221.56"
"22.40000","1.86700","2229.11"
"22.50000","1.87537","2237"
"22.60000","1.88353","2245.16"
"22.70000","1.89170","2251.99"
"22.80000","1.90006","2260.33"
"22.90000","1.90863","2268.09"
"23.00000","1.91699","2275.81"
"23.10000","1.92516","2283.56"
"23.20000","1.93363","2292.17"
"23.30000","1.94189","2299.84"
"23.40000","1.95005","2306.35"
"23.50000","1.95832","2314.38"
"23.60000","1.96689","2323.99"
"23.70000","1.97545","2331.9"
"23.80000","1.98362","2339.64"
"23.90000","1.99178","2348.12"
"24.00000","2.00015","2354.98"
"24.10000","2.00841","2363.12"
"24.20000","2.01668","2372.08"
"24.30000","2.02535","2379.27"
"24.40000","2.03391","2387.54"
"24.50000","2.04208","2395.92"
"24.60000","2.05014","2403.42"
"24.70000","2.05831","2410.84"
"24.80000","2.06687","2418.02"
"24.90000","2.07524","2425.82"
"25.00000","2.08351","2433.69"
"25.10000","2.09207","2441.89"
"25.20000","2.10044","2449.73"
"25.30000","2.10850","2457.54"
"25.40000","2.11657","2465.03"
"25.50000","2.12493","2473.1"
"25.60000","2.13350","2481.79"
"25.70000","2.14197","2489.83"
"25.80000","2.15043","2497.74"
"25.90000","2.15880","2505.58"
"26.00000","2.16686","2512.23"
"26.10000","2.17493","2520.15"
"26.20000","2.18329","2528.23"
"26.30000","2.19196","2536.39"
"26.40000","2.20043","2545.03"
"26.50000","2.20889","2552.15"
"26.60000","2.21716","2558.13"
"26.70000","2.22502","2565.75"
"26.80000","2.23318","2574.63"
"26.90000","2.24165","2582.13"
"27.00000","2.25032","2589.74"
"27.10000","2.25879","2597.09"
"27.20000","2.26695","2605.75"
"27.30000","2.27511","2612.69"
"27.40000","2.28318","2620.48"
"27.50000","2.29144","2628.56"
"27.60000","2.30021","2636.57"
"27.70000","2.30858","2644.3"
"27.80000","2.31684","2652.58"
"27.90000","2.32531","2659.59"
"28.00000","2.33378","2668.11"
"28.10000","2.34184","2674.4"
"28.20000","2.35000","2682.34"
"28.30000","2.35867","2690.58"
"28.40000","2.36724","2699.41"
"28.50000","2.37550","2705.71"
"28.60000","2.38377","2712.74"
"28.70000","2.39203","2720.65"
"28.80000","2.40000","2728.22"
"28.90000","2.40826","2734.79"
"29.00000","2.41683","2742.7"
"29.10000","2.42550","2750.56"
"29.20000","2.43396","2757.43"
"29.30000","2.44203","2764.17"
"29.40000","2.44999","2772.77"
"29.50000","2.45836","2779.93"
"29.60000","2.46682","2786.97"
"29.70000","2.47529","2794.26"
"29.80000","2.48376","2802.11"
"29.90000","2.49212","2808.75"
"30.00000","2.50009","2816.29"
"30.10000","2.50805","2823.29"
"30.20000","2.51641","2830.17"
"30.30000","2.52528","2838.68"
"30.40000","2.53355","2845.35"
"30.50000","2.54202","2852.88"
"30.60000","2.55048","2861.15"
"30.70000","2.55875","2867.69"
"30.80000","2.56671","2874.59"
"30.90000","2.57487","2881.43"
"31.00000","2.58344","2889.66"
"31.10000","2.59211","2897.65"
"31.20000","2.60048","2905.37"
"31.30000","2.60894","2913.05"
"31.40000","2.61691","2919.37"
"31.50000","2.62487","2926.3"
"31.60000","2.63323","2933.5"
"31.70000","2.64200","2941.94"
"31.80000","2.65067","2949.36"
"31.90000","2.65894","2957.09"
"32.00000","2.66700","2963.66"
"32.10000","2.67516","2970.82"
"32.20000","2.68323","2978.45"
"32.30000","2.69149","2983.67"
"32.40000","2.70026","2991.93"
"32.50000","2.70853","3000.07"
"32.60000","2.71669","3006.72"
"32.70000","2.72496","3013.59"
"32.80000","2.73342","3022.35"
"32.90000","2.74159","3028.36"
"33.00000","2.74975","3035.25"
"33.10000","2.75842","3042.48"
"33.20000","2.76709","3051.12"
"33.30000","2.77525","3059.3"
"33.40000","2.78362","3065.2"
"33.50000","2.79178","3073.32"
"33.60000","2.79995","3080.7"
"33.70000","2.80841","3087.43"
"33.80000","2.81698","3094.85"
"33.90000","2.82565","3103.51"
"34.00000","2.83371","3110.43"
"34.10000","2.84178","3117.35"
"34.20000","2.85004","3124.27"
"34.30000","2.85841","3131.16"
"34.40000","2.86677","3139.52"
"34.50000","2.87534","3146.6"
"34.60000","2.88371","3153.46"
"34.70000","2.89207","3160.25"
"34.80000","2.90024","3167.54"
"34.90000","2.90830","3174.69"
"35.00000","2.91667","3181.27"
"35.10000","2.92523","3188.34"
"35.20000","2.93380","3196.27"
"35.30000","2.94227","3202.91"
"35.40000","2.95063","3210.65"
"35.50000","2.95870","3217.57"
"35.60000","2.96676","3223.44"
"35.70000","2.97492","3230.65"
"35.80000","2.98359","3238.8"
"35.90000","2.99196","3245.74"
"36.00000","3.00032","3253.85"
"36.10000","3.00869","3260.48"
"36.20000","3.01675","3268.71"
"36.30000","3.02482","3276.18"
"36.40000","3.03328","3283.57"
"36.50000","3.04205","3289.64"
"36.60000","3.05042","3297.82"
"36.70000","3.05858","3305.07"
"36.80000","3.06695","3312.73"
"36.90000","3.07521","3319.39"
"37.00000","3.08338","3326.84"
"37.10000","3.09184","3333.05"
"37.20000","3.10041","3340.94"
"37.30000","3.10868","3348.63"
"37.40000","3.11714","3356.38"
"37.50000","3.12551","3362.76"
"37.60000","3.13367","3368.03"
"37.70000","3.14164","3376.02"
"37.80000","3.14990","3383.44"
"37.90000","3.15857","3390.44"
"38.00000","3.16724","3397.1"
"38.10000","3.17530","3402.86"
"38.20000","3.18357","3410.62"
"38.30000","3.19153","3417.24"
"38.40000","3.19959","3422.89"
"38.50000","3.20826","3430.57"
"38.60000","3.21693","3439.05"
"38.70000","3.22550","3445.79"
"38.80000","3.23376","3451.94"
"38.90000","3.24183","3459.65"
"39.00000","3.24999","3466.62"
"39.10000","3.25856","3473.1"
"39.20000","3.26702","3480.83"
"39.30000","3.27539","3487.86"
"39.40000","3.28386","3493.75"
"39.50000","3.29212","3500.65"
"39.60000","3.30008","3507.42"
"39.70000","3.30825","3513.73"
"39.80000","3.31672","3520.53"
"39.90000","3.32528","3528.31"
"40.00000","3.33375","3534.49"
"40.10000","3.34222","3541.72"
"40.20000","3.35058","3548.17"
"40.30000","3.35854","3553.32"
"40.40000","3.36661","3560.75"
"40.50000","3.37497","3567.49"
"40.60000","3.38364","3574.75"
"40.70000","3.39211","3580.95"
"40.80000","3.40058","3587.02"
"40.90000","3.40854","3593.49"
"41.00000","3.41650","3599.27"
"41.10000","3.42477","3605.9"
"41.20000","3.43354","3612.28"
"41.30000","3.44210","3618.24"
"41.40000","3.45047","3623.97"
"41.50000","3.45873","3631.37"
"41.60000","3.46700","3637.2"
"41.70000","3.47496","3643.3"
"41.80000","3.48323","3649.68"
"41.90000","3.49189","3655.99"
"42.00000","3.50036","3662.41"
"42.10000","3.50863","3669.93"
"42.20000","3.51709","3674.85"
"42.30000","3.52546","3681.17"
"42.40000","3.53352","3687.33"
"42.50000","3.54169","3693.28"
"42.60000","3.55015","3697.82"
"42.70000","3.55892","3705.59"
"42.80000","3.56719","3711.19"
"42.90000","3.57545","3716.93"
"43.00000","3.58352","3723.04"
"43.10000","3.59168","3728.09"
"43.20000","3.60005","3733.78"
"43.30000","3.60861","3738.32"
"43.40000","3.61718","3745.45"
"43.50000","3.62545","3751.75"
"43.60000","3.63331","3755.75"
"43.70000","3.64137","3760.6"
"43.80000","3.64974","3766.19"
"43.90000","3.65830","3772.4"
"44.00000","3.66697","3777.37"
"44.10000","3.67564","3783.21"
"44.20000","3.68381","3787.87"
"44.30000","3.69177","3791.79"
"44.40000","3.69983","3797.39"
"44.50000","3.70820","3801.21"
"44.60000","3.71677","3806.66"
"44.70000","3.72523","3812.48"
"44.80000","3.73380","3817.64"
"44.90000","3.74227","3820.71"
"45.00000","3.75043","3824.98"
"45.10000","3.75839","3829.47"
"45.20000","3.76666","3833.14"
"45.30000","3.77533","3837.89"
"45.40000","3.78379","3841.66"
"45.50000","3.79206","3845.21"
"45.60000","3.80042","3848.94"
"45.70000","3.80859","3852.45"
"45.80000","3.81675","3855.71"
"45.90000","3.82522","3858.83"
"46.00000","3.83369","3861.61"
"46.10000","3.84195","3864.95"
"46.20000","3.85042","3867.3"
"46.30000","3.85868","3869.8"
"46.40000","3.86695","3872.29"
"46.50000","3.87501","3874.01"
"46.60000","3.88348","3875.43"
"46.70000","3.89184","3877.03"
"46.80000","3.90011","3877.53"
"46.90000","3.90858","3878.67"
"47.00000","3.91694","3880.41"
"47.10000","3.92541","3879.77"
"47.20000","3.93347","3878.72"
"47.30000","3.94164","3877.61"
"47.40000","3.95030","3877.61"
"47.50000","3.95897","3874.81"
"47.60000","3.96704","3872.2"
"47.70000","3.97540","3866.54"
"47.80000","3.98346","3860.01"
"47.90000","3.99163","3852.07"
"48.00000","3.99999","3840.54"
"48.10000","4.00876","3824.31"
"48.20000","4.01733","3796.45"
"48.30000","4.02560","3726.51"
"48.32200","4.02731","3399.76"
"48.32600","4.02771","3053.93"
"48.33000","4.02812","2653.11"
"48.33400","4.02852","2225.96"