File: Data_Processing/Tensile-Data/Sequence_6.csv
General : Start date,"10/22/2024 9:24 AM"
General : End date,"10/22/2024 9:25 AM"
Specimen notes : Specimen note 1,"purple, 200, batch 10, seq 6"
Test : Rate 1,"5.00000",mm/min

Time,Extension,Load
(s),(mm),(N)
"0.00000","-0.00020","-0.07016"
"0.10000","0.00091","0.35451"
"0.20000","0.01058","12.62137"
"0.30000","0.02449","38.98933"
"0.40000","0.03326","56.08270"
"0.50000","0.04122","69.65570"
"0.60000","0.04979","83.30157"
"0.70000","0.05786","97.01874"
"0.80000","0.06642","110.401"
"0.90000","0.07499","123.789"
"1.00000","0.08336","138.073"
"1.10000","0.09192","153.049"
"1.20000","0.10019","166.217"
"1.30000","0.10815","179.361"
"1.40000","0.11632","193.444"
"1.50000","0.12478","208.548"
"1.60000","0.13345","223.321"
"1.70000","0.14182","237.324"
"1.80000","0.15028","251.744"
"1.90000","0.15845","264.212"
"2.00000","0.16651","277.959"
"2.10000","0.17478","291.877"
"2.20000","0.18334","306.536"
"2.30000","0.19201","320.058"
"2.40000","0.20028","333.773"
"2.50000","0.20824","346.666"
"2.60000","0.21661","360.934"
"2.70000","0.22487","374.542"
"2.80000","0.23314","388.061"
"2.90000","0.24170","401.68"
"3.00000","0.25027","416.159"
"3.10000","0.25874","430.69"
"3.20000","0.26690","443.772"
"3.30000","0.27507","456.691"
"3.40000","0.28323","469.029"
"3.50000","0.29160","483.473"
"3.60000","0.30006","497.111"
"3.70000","0.30853","510.316"
"3.80000","0.31710","524.157"
"3.90000","0.32536","537.856"
"4.00000","0.33332","550.232"
"4.10000","0.34139","562.935"
"4.20000","0.34975","577.434"
"4.30000","0.35832","590.691"
"4.40000","0.36689","604.078"
"4.50000","0.37525","617.667"
"4.60000","0.38302","630.75"
"4.70000","0.39108","642.929"
"4.80000","0.39955","655.612"
"4.90000","0.40842","670.708"
"5.00000","0.41688","683.985"
"5.10000","0.42535","696.891"
"5.20000","0.43341","709.841"
"5.30000","0.44188","723.271"
"5.40000","0.45004","735.606"
"5.50000","0.45841","748.935"
"5.60000","0.46678","762.382"
"5.70000","0.47514","775.981"
"5.80000","0.48351","788.818"
"5.90000","0.49197","802.385"
"6.00000","0.50004","814.712"
"6.10000","0.50810","826.816"
"6.20000","0.51657","840.044"
"6.30000","0.52513","852.819"
"6.40000","0.53350","866.359"
"6.50000","0.54187","878.958"
"6.60000","0.55033","892.44"
"6.70000","0.55830","904.945"
"6.80000","0.56636","917.48"
"6.90000","0.57483","929.414"
"7.00000","0.58349","942.634"
"7.10000","0.59196","956.042"
"7.20000","0.60013","968.798"
"7.30000","0.60829","979.966"
"7.40000","0.61666","993.738"
"7.50000","0.62482","1006.47"
"7.60000","0.63319","1018.67"
"7.70000","0.64185","1031.84"
"7.80000","0.65012","1044.79"
"7.90000","0.65818","1056.65"
"8.00000","0.66645","1069.33"
"8.10000","0.67471","1080.93"
"8.20000","0.68298","1092.29"
"8.30000","0.69124","1106.01"
"8.40000","0.69981","1118.28"
"8.50000","0.70858","1131.37"
"8.60000","0.71695","1144.02"
"8.70000","0.72511","1154.66"
"8.80000","0.73307","1167.05"
"8.90000","0.74134","1178.93"
"9.00000","0.74970","1190.36"
"9.10000","0.75837","1204.18"
"9.20000","0.76694","1216.99"
"9.30000","0.77530","1228.41"
"9.40000","0.78337","1240.08"
"9.50000","0.79133","1250.65"
"9.60000","0.79980","1263.26"
"9.70000","0.80836","1274.64"
"9.80000","0.81683","1287.8"
"9.90000","0.82520","1299"
"10.00000","0.83356","1311.73"
"10.10000","0.84173","1323.29"
"10.20000","0.84969","1333.31"
"10.30000","0.85826","1345.94"
"10.40000","0.86683","1357.5"
"10.50000","0.87489","1369.11"
"10.60000","0.88315","1380.28"
"10.70000","0.89192","1392.78"
"10.80000","0.90019","1404.22"
"10.90000","0.90805","1414.97"
"11.00000","0.91631","1426.32"
"11.10000","0.92498","1437.79"
"11.20000","0.93335","1450.52"
"11.30000","0.94161","1460.44"
"11.40000","0.95028","1472.69"
"11.50000","0.95814","1483.97"
"11.60000","0.96621","1495.54"
"11.70000","0.97457","1506.73"
"11.80000","0.98354","1518.44"
"11.90000","0.99201","1529.99"
"12.00000","1.00018","1541.21"
"12.10000","1.00844","1551.51"
"12.20000","1.01671","1562.09"
"12.30000","1.02487","1573.38"
"12.40000","1.03313","1583.24"
"12.50000","1.04180","1594.94"
"12.60000","1.05027","1605.71"
"12.70000","1.05853","1617.13"
"12.80000","1.06670","1626.61"
"12.90000","1.07466","1636.5"
"13.00000","1.08303","1647.31"
"13.10000","1.09139","1658.12"
"13.20000","1.09996","1669.93"
"13.30000","1.10853","1680.71"
"13.40000","1.11699","1691.49"
"13.50000","1.12506","1701.51"
"13.60000","1.13302","1710.97"
"13.70000","1.14139","1720.84"
"13.80000","1.14985","1731.16"
"13.90000","1.15862","1741.68"
"14.00000","1.16709","1753.25"
"14.10000","1.17505","1764.42"
"14.20000","1.18312","1773.67"
"14.30000","1.19138","1783.22"
"14.40000","1.19985","1793.16"
"14.50000","1.20841","1804.25"
"14.60000","1.21688","1814.47"
"14.70000","1.22525","1824.68"
"14.80000","1.23341","1834.64"
"14.90000","1.24158","1844.96"
"15.00000","1.24974","1854.19"
"15.10000","1.25821","1865.32"
"15.20000","1.26647","1875.01"
"15.30000","1.27494","1884.26"
"15.40000","1.28361","1895.77"
"15.50000","1.29197","1905.09"
"15.60000","1.29983","1914.36"
"15.70000","1.30800","1925.03"
"15.80000","1.31667","1935.06"
"15.90000","1.32534","1946.03"
"16.00000","1.33360","1954.94"
"16.10000","1.34187","1964.93"
"16.20000","1.35023","1974.35"
"16.30000","1.35819","1980.34"
"16.40000","1.36626","1989.81"
"16.50000","1.37503","1999.54"
"16.60000","1.38380","2011.17"
"16.70000","1.39196","2021.11"
"16.80000","1.40002","2030.23"
"16.90000","1.40839","2039.29"
"17.00000","1.41655","2047.85"
"17.10000","1.42472","2056.63"
"17.20000","1.43329","2067.42"
"17.30000","1.44185","2077.6"
"17.40000","1.45012","2087.23"
"17.50000","1.45838","2097.14"
"17.60000","1.46645","2106.45"
"17.70000","1.47461","2115.82"
"17.80000","1.48308","2124.36"
"17.90000","1.49154","2134"
"18.00000","1.50021","2143.69"
"18.10000","1.50858","2153.51"
"18.20000","1.51674","2162.82"
"18.30000","1.52481","2172.31"
"18.40000","1.53297","2180.26"
"18.50000","1.54144","2188.78"
"18.60000","1.55021","2198.28"
"18.70000","1.55877","2207.09"
"18.80000","1.56694","2216.05"
"18.90000","1.57490","2224.62"
"19.00000","1.58306","2234.21"
"19.10000","1.59153","2242.84"
"19.20000","1.60010","2250.9"
"19.30000","1.60846","2260.47"
"19.40000","1.61673","2269"
"19.50000","1.62530","2277.92"
"19.60000","1.63356","2286.55"
"19.70000","1.64153","2293.97"
"19.80000","1.64989","2301.4"
"19.90000","1.65856","2310.39"
"20.00000","1.66682","2317.06"
"20.10000","1.67509","2323.73"
"20.20000","1.68356","2331.55"
"20.30000","1.69172","2340.29"
"20.40000","1.69978","2346.98"
"20.50000","1.70805","2354.99"
"20.60000","1.71672","2363.54"
"20.70000","1.72508","2372.37"
"20.80000","1.73325","2380.72"
"20.90000","1.74151","2389.74"
"21.00000","1.74988","2397.99"
"21.10000","1.75814","2405.88"
"21.20000","1.76641","2413.3"
"21.30000","1.77508","2421.86"
"21.40000","1.78364","2430.73"
"21.50000","1.79151","2437.35"
"21.60000","1.79987","2417.43"
"21.70000","1.80854","2372.23"
"21.80000","1.81681","2383.61"
"21.90000","1.82507","2394.2"
"22.00000","1.83364","2405.22"
"22.10000","1.84190","2414.89"
"22.20000","1.85017","2425.25"
"22.30000","1.85833","2434.33"
"22.40000","1.86650","2444.96"
"22.50000","1.87496","2453.75"
"22.60000","1.88313","2464.27"
"22.70000","1.89170","2474.62"
"22.80000","1.90016","2484.69"
"22.90000","1.90863","2493.67"
"23.00000","1.91679","2503.04"
"23.10000","1.92476","2510.51"
"23.20000","1.93302","2519.99"
"23.30000","1.94149","2529.54"
"23.40000","1.94995","2538.98"
"23.50000","1.95842","2548.59"
"23.60000","1.96658","2557.19"
"23.70000","1.97485","2565.62"
"23.80000","1.98291","2573.18"
"23.90000","1.99148","2582.31"
"24.00000","1.99995","2591.98"
"24.10000","2.00841","2600.24"
"24.20000","2.01688","2610.12"
"24.30000","2.02525","2618.95"
"24.40000","2.03331","2626.14"
"24.50000","2.04137","2634.47"
"24.60000","2.04984","2642.16"
"24.70000","2.05821","2651.45"
"24.80000","2.06677","2659.81"
"24.90000","2.07534","2669.11"
"25.00000","2.08371","2677.26"
"25.10000","2.09167","2684.48"
"25.20000","2.09963","2692.66"
"25.30000","2.10810","2701.41"
"25.40000","2.11687","2710.21"
"25.50000","2.12513","2718.5"
"25.60000","2.13350","2726.84"
"25.70000","2.14186","2735.02"
"25.80000","2.14963","2743.18"
"25.90000","2.15779","2751.04"
"26.00000","2.16656","2759.46"
"26.10000","2.17513","2767.9"
"26.20000","2.18349","2775.63"
"26.30000","2.19146","2778.99"
"26.40000","2.19982","2786.08"
"26.50000","2.20819","2793.73"
"26.60000","2.21635","2800.86"
"26.70000","2.22492","2809.37"
"26.80000","2.23339","2817.81"
"26.90000","2.24185","2825.17"
"27.00000","2.25022","2832.62"
"27.10000","2.25828","2838.92"
"27.20000","2.26645","2847.43"
"27.30000","2.27471","2854.91"
"27.40000","2.28348","2863.67"
"27.50000","2.29205","2872.19"
"27.60000","2.30041","2880.05"
"27.70000","2.30868","2887.63"
"27.80000","2.31674","2894.5"
"27.90000","2.32460","2900.31"
"28.00000","2.33297","2908.17"
"28.10000","2.34174","2869.64"
"28.20000","2.35041","2862.85"
"28.30000","2.35867","2873.43"
"28.40000","2.36663","2883.27"
"28.50000","2.37470","2892.38"
"28.60000","2.38306","2901.85"
"28.70000","2.39163","2907.79"
"28.80000","2.40020","2917.79"
"28.90000","2.40846","2926.45"
"29.00000","2.41693","2933.77"
"29.10000","2.42509","2943.85"
"29.20000","2.43316","2951.94"
"29.30000","2.44132","2960.37"
"29.40000","2.44999","2967.59"
"29.50000","2.45836","2977.39"
"29.60000","2.46672","2984.75"
"29.70000","2.47519","2992.87"
"29.80000","2.48366","3000.5"
"29.90000","2.49132","3009.12"
"30.00000","2.49958","3016.11"
"30.10000","2.50815","3025.59"
"30.20000","2.51692","3034.38"
"30.30000","2.52508","3042.31"
"30.40000","2.53335","3050.79"
"30.50000","2.54171","3058.23"
"30.60000","2.54978","3065.86"
"30.70000","2.55794","3073.89"
"30.80000","2.56671","3082.59"
"30.90000","2.57548","3089.36"
"31.00000","2.58364","3098.54"
"31.10000","2.59161","3105.79"
"31.20000","2.60007","3113.28"
"31.30000","2.60844","3121.2"
"31.40000","2.61660","3127.93"
"31.50000","2.62517","3135.96"
"31.60000","2.63354","3144.53"
"31.70000","2.64190","3151.25"
"31.80000","2.65007","3159.27"
"31.90000","2.65803","3165.43"
"32.00000","2.66629","3173.84"
"32.10000","2.67476","3180.65"
"32.20000","2.68343","3187.47"
"32.30000","2.69190","3195.12"
"32.40000","2.70046","3201.89"
"32.50000","2.70863","3209.52"
"32.60000","2.71649","3215.97"
"32.70000","2.72475","3222.91"
"32.80000","2.73332","3229.81"
"32.90000","2.74199","3237.99"
"33.00000","2.75046","3245.11"
"33.10000","2.75852","3251.87"
"33.20000","2.76658","3259.18"
"33.30000","2.77465","3265.75"
"33.40000","2.78301","3271.63"
"33.50000","2.79148","3278.58"
"33.60000","2.80015","3285.95"
"33.70000","2.80851","3293.82"
"33.80000","2.81688","3300.1"
"33.90000","2.82494","3306.01"
"34.00000","2.83311","3312.58"
"34.10000","2.84168","3320.13"
"34.20000","2.84984","3327.41"
"34.30000","2.85810","3333.96"
"34.40000","2.86677","3341.9"
"34.50000","2.87524","3348.55"
"34.60000","2.88340","3355.19"
"34.70000","2.89137","3357.54"
"34.80000","2.89973","3362.81"
"34.90000","2.90840","3368.21"
"35.00000","2.91687","3374.29"
"35.10000","2.92503","3380.61"
"35.20000","2.93350","3387.4"
"35.30000","2.94146","3393.91"
"35.40000","2.94962","3399.64"
"35.50000","2.95809","3404.91"
"35.60000","2.96696","3339.07"
"35.70000","2.97533","3351.62"
"35.80000","2.98329","3359.66"
"35.90000","2.99166","3368.78"
"36.00000","3.00002","3377.15"
"36.10000","3.00819","3384.51"
"36.20000","3.01665","3392.73"
"36.30000","3.02522","3401.12"
"36.40000","3.03349","3408.65"
"36.50000","3.04175","3416.37"
"36.60000","3.04991","3423.19"
"36.70000","3.05818","3430.79"
"36.80000","3.06634","3437.86"
"36.90000","3.07461","3444.87"
"37.00000","3.08338","3452.12"
"37.10000","3.09205","3391.97"
"37.20000","3.10031","3403.55"
"37.30000","3.10827","3412.97"
"37.40000","3.11624","3421.52"
"37.50000","3.12440","3429.84"
"37.60000","3.13327","3439.62"
"37.70000","3.14184","3448.71"
"37.80000","3.15031","3457.25"
"37.90000","3.15857","3465.36"
"38.00000","3.16653","3473.52"
"38.10000","3.17480","3480.46"
"38.20000","3.18326","3489.13"
"38.30000","3.19183","3497.78"
"38.40000","3.20010","3505.62"
"38.50000","3.20866","3512.79"
"38.60000","3.21713","3520.86"
"38.70000","3.22499","3527.77"
"38.80000","3.23306","3533.46"
"38.90000","3.24152","3540.3"
"39.00000","3.24999","3466.58"
"39.10000","3.25836","3439.43"
"39.20000","3.26682","3443.34"
"39.30000","3.27539","3451.22"
"39.40000","3.28325","3456.98"
"39.50000","3.29121","3462.7"
"39.60000","3.29978","3469.61"
"39.70000","3.30855","3478.43"
"39.80000","3.31682","3484.82"
"39.90000","3.32518","3492.22"
"40.00000","3.33345","3498.96"
"40.10000","3.34141","3505.75"
"40.20000","3.34937","3512.94"
"40.30000","3.35814","3519.71"
"40.40000","3.36691","3526.08"
"40.50000","3.37507","3531.62"
"40.60000","3.38334","3536.88"
"40.70000","3.39171","3544.04"
"40.80000","3.39997","3549.9"
"40.90000","3.40824","3556.64"
"41.00000","3.41670","3563.65"
"41.10000","3.42537","3570.09"
"41.20000","3.43374","3577"
"41.30000","3.44200","3582.68"
"41.40000","3.44996","3588.64"
"41.50000","3.45813","3594.68"
"41.60000","3.46639","3600.88"
"41.70000","3.47506","3606.6"
"41.80000","3.48373","3612.45"
"41.90000","3.49230","3618.99"
"42.00000","3.50036","3623.73"
"42.10000","3.50822","3628.43"
"42.20000","3.51639","3634.59"
"42.30000","3.52475","3640.17"
"42.40000","3.53332","3646.13"
"42.50000","3.54179","3650.9"
"42.60000","3.55005","3657.29"
"42.70000","3.55822","3662.17"
"42.80000","3.56628","3667.7"
"42.90000","3.57465","3672.69"
"43.00000","3.58331","3679.11"
"43.10000","3.59168","3684.35"
"43.20000","3.60015","3689.43"
"43.30000","3.60861","3695.18"
"43.40000","3.61678","3699.76"
"43.50000","3.62494","3703.72"
"43.60000","3.63331","3708.48"
"43.70000","3.64177","3714.4"
"43.80000","3.65004","3718.56"
"43.90000","3.65851","3723.12"
"44.00000","3.66707","3728.35"
"44.10000","3.67534","3732.29"
"44.20000","3.68320","3737.08"
"44.30000","3.69147","3740.72"
"44.40000","3.70013","3745.24"
"44.50000","3.70860","3749.24"
"44.60000","3.71687","3752.77"
"44.70000","3.72523","3756.76"
"44.80000","3.73319","3760.04"
"44.90000","3.74136","3764.41"
"45.00000","3.74972","3767.61"
"45.10000","3.75849","3772.43"
"45.20000","3.76696","3776.5"
"45.30000","3.77502","3778.93"
"45.40000","3.78319","3782.32"
"45.50000","3.79176","3786.05"
"45.60000","3.79992","3789.26"
"45.70000","3.80819","3791.69"
"45.80000","3.81655","3795.55"
"45.90000","3.82502","3798.6"
"46.00000","3.83348","3801.52"
"46.10000","3.84155","3803.47"
"46.20000","3.84971","3806.54"
"46.30000","3.85798","3809.03"
"46.40000","3.86624","3811.5"
"46.50000","3.87511","3814.47"
"46.60000","3.88368","3818.15"
"46.70000","3.89194","3821.07"
"46.80000","3.90011","3823.09"
"46.90000","3.90807","3825.29"
"47.00000","3.91644","3826.37"
"47.10000","3.92500","3828.28"
"47.20000","3.93357","3830.64"
"47.30000","3.94204","3833.6"
"47.40000","3.95020","3834.39"
"47.50000","3.95817","3834.69"
"47.60000","3.96653","3834.21"
"47.70000","3.97490","3835.74"
"47.80000","3.98326","3836.59"
"47.90000","3.99163","3837.09"
"48.00000","3.99989","3836.79"
"48.10000","4.00846","3837.61"
"48.20000","4.01673","3837.15"
"48.30000","4.02479","3836.07"
"48.40000","4.03306","3834.57"
"48.50000","4.04172","3832.87"
"48.60000","4.04979","3830.28"
"48.70000","4.05825","3825.58"
"48.80000","4.06682","3821.46"
"48.90000","4.07509","3812.78"
"49.00000","4.08295","3799.09"
"49.10000","4.09141","3769.38"
"49.20000","4.10049","3644.32"
"49.30000","4.10875","3525.69"
"49.40000","4.11692","3459.47"
"49.50000","4.12528","3407.79"
"49.60000","4.13355","3362.52"
"49.70000","4.14161","3315.15"
"49.80000","4.14998","3236.22"
"49.85200","4.15461","2982.76"
"49.86200","4.15562","2727.28"
"49.86600","4.15592","2450.14"
"49.87000","4.15643","2127.17"
"49.87200","4.15663","1954.91"