File: Data_Processing/Tensile-Data/Sequence_49.csv
General : Start date,"11/5/2024 8:30 AM"
General : End date,"11/5/2024 8:31 AM"
Specimen notes : Specimen note 1,"Day 3, purple, 230, batch 14, seq 49"
Test : Rate 1,"5.00000",mm/min

Time,Extension,Load
(s),(mm),(N)
"0.00000","0.00010","-0.15701"
"0.10000","0.00192","0.37265"
"0.20000","0.00927","5.99209"
"0.30000","0.01965","24.01473"
"0.40000","0.03125","46.68366"
"0.50000","0.04012","63.89378"
"0.60000","0.04878","78.97036"
"0.70000","0.05796","96.71250"
"0.80000","0.06662","110.791"
"0.90000","0.07509","126.595"
"1.00000","0.08346","140.631"
"1.10000","0.09182","156.134"
"1.20000","0.10009","169.84"
"1.30000","0.10835","184.303"
"1.40000","0.11682","198.719"
"1.50000","0.12529","212.544"
"1.60000","0.13375","227.747"
"1.70000","0.14212","239.523"
"1.80000","0.15018","253.34"
"1.90000","0.15815","265.695"
"2.00000","0.16651","280.647"
"2.10000","0.17538","294.106"
"2.20000","0.18385","307.415"
"2.30000","0.19211","321.262"
"2.40000","0.20008","334.669"
"2.50000","0.20814","348.178"
"2.60000","0.21650","361.942"
"2.70000","0.22517","376.03"
"2.80000","0.23364","389.936"
"2.90000","0.24180","403.44"
"3.00000","0.25007","416.816"
"3.10000","0.25854","430.392"
"3.20000","0.26670","443.327"
"3.30000","0.27507","457.536"
"3.40000","0.28363","469.856"
"3.50000","0.29210","484.236"
"3.60000","0.30037","496.673"
"3.70000","0.30883","510.74"
"3.80000","0.31690","523.9"
"3.90000","0.32496","535.62"
"4.00000","0.33343","548.649"
"4.10000","0.34199","563.004"
"4.20000","0.35036","575.379"
"4.30000","0.35862","589.277"
"4.40000","0.36709","601.705"
"4.50000","0.37515","614.865"
"4.60000","0.38312","626.682"
"4.70000","0.39148","641.037"
"4.80000","0.40025","652.078"
"4.90000","0.40872","665.505"
"5.00000","0.41708","678.603"
"5.10000","0.42525","690.232"
"5.20000","0.43331","701.941"
"5.30000","0.44138","713.569"
"5.40000","0.45004","727.064"
"5.50000","0.45871","738.704"
"5.60000","0.46698","750.83"
"5.70000","0.47494","761.013"
"5.80000","0.48341","773.458"
"5.90000","0.49187","786.479"
"6.00000","0.50014","797.676"
"6.10000","0.50850","808.755"
"6.20000","0.51707","821.916"
"6.30000","0.52564","833.196"
"6.40000","0.53380","845.797"
"6.50000","0.54207","855.987"
"6.60000","0.55003","866.5"
"6.70000","0.55830","878.187"
"6.80000","0.56676","890.497"
"6.90000","0.57533","901.908"
"7.00000","0.58380","911.988"
"7.10000","0.59196","923.108"
"7.20000","0.59982","933.525"
"7.30000","0.60809","944.71"
"7.40000","0.61645","954.438"
"7.50000","0.62512","965.865"
"7.60000","0.63369","976.989"
"7.70000","0.64185","987.571"
"7.80000","0.64992","997.898"
"7.90000","0.65798","1007.83"
"8.00000","0.66625","1018.62"
"8.10000","0.67501","1029.08"
"8.20000","0.68358","1040.11"
"8.30000","0.69175","1050.9"
"8.40000","0.70021","1059.52"
"8.50000","0.70858","1070.89"
"8.60000","0.71674","1080.84"
"8.70000","0.72491","1090.95"
"8.80000","0.73327","1101.27"
"8.90000","0.74174","1110.9"
"9.00000","0.75031","1121.94"
"9.10000","0.75888","1131.55"
"9.20000","0.76714","1141.21"
"9.30000","0.77500","1150.83"
"9.40000","0.78317","1161.68"
"9.50000","0.79173","1170.03"
"9.60000","0.80010","1181.22"
"9.70000","0.80836","1191.24"
"9.80000","0.81693","1202.51"
"9.90000","0.82520","1211.49"
"10.00000","0.83326","1220.9"
"10.10000","0.84163","1230.67"
"10.20000","0.85019","1241.36"
"10.30000","0.85866","1251.26"
"10.40000","0.86693","1261.11"
"10.50000","0.87499","1270.34"
"10.60000","0.88356","1278.22"
"10.70000","0.89172","1287.75"
"10.80000","0.89999","1297.04"
"10.90000","0.90845","1305.55"
"11.00000","0.91692","1315.11"
"11.10000","0.92508","1324.62"
"11.20000","0.93345","1332.62"
"11.30000","0.94171","1341.11"
"11.40000","0.94988","1350.34"
"11.50000","0.95794","1359.34"
"11.60000","0.96651","1368.37"
"11.70000","0.97558","1378.75"
"11.80000","0.98375","1387.07"
"11.90000","0.99181","1396.19"
"12.00000","0.99997","1405.83"
"12.10000","1.00854","1414.75"
"12.20000","1.01691","1424.44"
"12.30000","1.02547","1433.15"
"12.40000","1.03384","1441.72"
"12.50000","1.04211","1450.99"
"12.60000","1.05037","1459.83"
"12.70000","1.05833","1469.01"
"12.80000","1.06670","1476.48"
"12.90000","1.07506","1486.5"
"13.00000","1.08353","1495.75"
"13.10000","1.09190","1503.69"
"13.20000","1.10046","1511.75"
"13.30000","1.10853","1519.91"
"13.40000","1.11649","1527.99"
"13.50000","1.12476","1536.23"
"13.60000","1.13353","1545.01"
"13.70000","1.14199","1554.03"
"13.80000","1.15016","1563.24"
"13.90000","1.15872","1570.72"
"14.00000","1.16689","1579.06"
"14.10000","1.17465","1587.19"
"14.20000","1.18301","1595.7"
"14.30000","1.19188","1604.55"
"14.40000","1.20035","1613.49"
"14.50000","1.20882","1620.85"
"14.60000","1.21718","1629.14"
"14.70000","1.22515","1637.24"
"14.80000","1.23311","1645.29"
"14.90000","1.24168","1654.25"
"15.00000","1.25034","1662.51"
"15.10000","1.25871","1670.49"
"15.20000","1.26698","1679.36"
"15.30000","1.27544","1688.42"
"15.40000","1.28361","1695.29"
"15.50000","1.29167","1704.15"
"15.60000","1.29983","1711.85"
"15.70000","1.30850","1721.38"
"15.80000","1.31707","1729.45"
"15.90000","1.32534","1737.73"
"16.00000","1.33360","1746.01"
"16.10000","1.34176","1754.17"
"16.20000","1.34983","1762.67"
"16.30000","1.35830","1771.29"
"16.40000","1.36686","1779.39"
"16.50000","1.37553","1788.54"
"16.60000","1.38380","1796.66"
"16.70000","1.39176","1804.9"
"16.80000","1.39982","1812.82"
"16.90000","1.40819","1822.2"
"17.00000","1.41696","1830.34"
"17.10000","1.42532","1839.56"
"17.20000","1.43349","1847.87"
"17.30000","1.44195","1856.17"
"17.40000","1.45022","1864.93"
"17.50000","1.45838","1872.29"
"17.60000","1.46675","1881.21"
"17.70000","1.47522","1888.17"
"17.80000","1.48368","1898.28"
"17.90000","1.49215","1906.03"
"18.00000","1.50031","1914"
"18.10000","1.50828","1921.64"
"18.20000","1.51634","1929.71"
"18.30000","1.52460","1936.91"
"18.40000","1.53327","1945.95"
"18.50000","1.54174","1954.64"
"18.60000","1.55031","1963.03"
"18.70000","1.55857","1970.7"
"18.80000","1.56653","1979.96"
"18.90000","1.57470","1987.45"
"19.00000","1.58337","1996.69"
"19.10000","1.59204","2005.02"
"19.20000","1.60040","2013.72"
"19.30000","1.60857","2022.8"
"19.40000","1.61683","2030.75"
"19.50000","1.62499","2039.28"
"19.60000","1.63316","2046.96"
"19.70000","1.64173","2056.3"
"19.80000","1.65029","2063.68"
"19.90000","1.65856","2072.43"
"20.00000","1.66682","2080.52"
"20.10000","1.67529","2089.48"
"20.20000","1.68346","2097.67"
"20.30000","1.69162","2106.32"
"20.40000","1.69999","2114.29"
"20.50000","1.70865","2123.37"
"20.60000","1.71712","2131.11"
"20.70000","1.72498","2139.65"
"20.80000","1.73325","2147.88"
"20.90000","1.74171","2155.63"
"21.00000","1.75008","2163.78"
"21.10000","1.75855","2173"
"21.20000","1.76711","2180.72"
"21.30000","1.77548","2188.69"
"21.40000","1.78344","2197.21"
"21.50000","1.79171","2205.4"
"21.60000","1.79997","2214.35"
"21.70000","1.80844","2221.17"
"21.80000","1.81701","2230.43"
"21.90000","1.82527","2238.74"
"22.00000","1.83364","2247.49"
"22.10000","1.84190","2254.47"
"22.20000","1.85007","2263.88"
"22.30000","1.85833","2270.88"
"22.40000","1.86670","2279.47"
"22.50000","1.87496","2288.15"
"22.60000","1.88343","2296.13"
"22.70000","1.89200","2304.63"
"22.80000","1.90026","2312.19"
"22.90000","1.90823","2319.7"
"23.00000","1.91639","2328.88"
"23.10000","1.92516","2336.36"
"23.20000","1.93383","2344.53"
"23.30000","1.94209","2352.87"
"23.40000","1.95046","2360.96"
"23.50000","1.95862","2368.45"
"23.60000","1.96658","2376.09"
"23.70000","1.97485","2385.18"
"23.80000","1.98342","2392.89"
"23.90000","1.99198","2400.69"
"24.00000","2.00025","2408.36"
"24.10000","2.00841","2417.74"
"24.20000","2.01678","2425.21"
"24.30000","2.02494","2433.54"
"24.40000","2.03331","2441.78"
"24.50000","2.04198","2449.86"
"24.60000","2.05014","2458.3"
"24.70000","2.05841","2467.04"
"24.80000","2.06687","2475.15"
"24.90000","2.07534","2482.88"
"25.00000","2.08340","2490.19"
"25.10000","2.09167","2499.43"
"25.20000","2.10024","2508.26"
"25.30000","2.10891","2517.11"
"25.40000","2.11717","2524.82"
"25.50000","2.12544","2532.67"
"25.60000","2.13360","2541.33"
"25.70000","2.14156","2548.76"
"25.80000","2.14993","2557.22"
"25.90000","2.15860","2565.21"
"26.00000","2.16726","2574.31"
"26.10000","2.17543","2582.22"
"26.20000","2.18349","2590.55"
"26.30000","2.19166","2597.71"
"26.40000","2.19992","2606.15"
"26.50000","2.20839","2614.88"
"26.60000","2.21686","2623"
"26.70000","2.22522","2631.65"
"26.80000","2.23349","2639.55"
"26.90000","2.24155","2647.58"
"27.00000","2.24981","2656.81"
"27.10000","2.25818","2664.74"
"27.20000","2.26675","2673.47"
"27.30000","2.27501","2681.6"
"27.40000","2.28358","2690.87"
"27.50000","2.29205","2698.24"
"27.60000","2.30031","2707.45"
"27.70000","2.30827","2714.37"
"27.80000","2.31654","2722.89"
"27.90000","2.32521","2732.3"
"28.00000","2.33368","2739.86"
"28.10000","2.34204","2747.69"
"28.20000","2.35051","2755.83"
"28.30000","2.35847","2764.87"
"28.40000","2.36643","2771.91"
"28.50000","2.37500","2780.53"
"28.60000","2.38387","2789.82"
"28.70000","2.39234","2797.42"
"28.80000","2.40050","2805.48"
"28.90000","2.40867","2813.66"
"29.00000","2.41683","2821.71"
"29.10000","2.42469","2829.12"
"29.20000","2.43316","2836.23"
"29.30000","2.44173","2845.39"
"29.40000","2.44999","2853.79"
"29.50000","2.45826","2862.63"
"29.60000","2.46662","2869.59"
"29.70000","2.47499","2878.76"
"29.80000","2.48305","2886.77"
"29.90000","2.49142","2895.51"
"30.00000","2.50019","2903.26"
"30.10000","2.50875","2912.4"
"30.20000","2.51712","2920.81"
"30.30000","2.52528","2928.64"
"30.40000","2.53335","2935.83"
"30.50000","2.54151","2944.98"
"30.60000","2.54998","2951.89"
"30.70000","2.55885","2961.56"
"30.80000","2.56721","2969.16"
"30.90000","2.57538","2977.61"
"31.00000","2.58344","2983.85"
"31.10000","2.59161","2992.64"
"31.20000","2.59997","3000.18"
"31.30000","2.60854","3008.78"
"31.40000","2.61691","3017.38"
"31.50000","2.62537","3024.11"
"31.60000","2.63374","3032.79"
"31.70000","2.64170","3040.96"
"31.80000","2.64966","3048.93"
"31.90000","2.65823","3055.97"
"32.00000","2.66690","3065.29"
"32.10000","2.67547","3073.14"
"32.20000","2.68383","3082.27"
"32.30000","2.69220","3089.33"
"32.40000","2.70016","3097.71"
"32.50000","2.70812","3104.87"
"32.60000","2.71669","3113.14"
"32.70000","2.72526","3121.95"
"32.80000","2.73372","3131.03"
"32.90000","2.74209","3137.48"
"33.00000","2.75015","3146.06"
"33.10000","2.75812","3153.36"
"33.20000","2.76648","3161.34"
"33.30000","2.77495","3168.85"
"33.40000","2.78372","3177.14"
"33.50000","2.79198","3185.37"
"33.60000","2.80015","3193.37"
"33.70000","2.80841","3200.97"
"33.80000","2.81658","3207.74"
"33.90000","2.82494","3216.27"
"34.00000","2.83361","3224.44"
"34.10000","2.84198","3232.76"
"34.20000","2.85034","3238.91"
"34.30000","2.85871","3248.3"
"34.40000","2.86697","3255.06"
"34.50000","2.87524","3262.81"
"34.60000","2.88330","3270.92"
"34.70000","2.89167","3277.39"
"34.80000","2.90034","3286.24"
"34.90000","2.90880","3294.07"
"35.00000","2.91697","3300.31"
"35.10000","2.92503","3309.36"
"35.20000","2.93309","3315.91"
"35.30000","2.94146","3323.36"
"35.40000","2.95013","3331.72"
"35.50000","2.95880","3340.4"
"35.60000","2.96716","3346.75"
"35.70000","2.97523","3354.6"
"35.80000","2.98339","3360.52"
"35.90000","2.99166","3367.87"
"36.00000","3.00012","3375.62"
"36.10000","3.00849","3381.9"
"36.20000","3.01695","3389.39"
"36.30000","3.02522","3396.55"
"36.40000","3.03349","3403.12"
"36.50000","3.04165","3409.9"
"36.60000","3.05002","3415.59"
"36.70000","3.05838","3422.46"
"36.80000","3.06685","3428.21"
"36.90000","3.07542","3435.95"
"37.00000","3.08368","3442.21"
"37.10000","3.09195","3448.06"
"37.20000","3.10001","3454.34"
"37.30000","3.10817","3459.63"
"37.40000","3.11674","3465.56"
"37.50000","3.12521","3471.49"
"37.60000","3.13367","3476.94"
"37.70000","3.14214","3481.85"
"37.80000","3.15020","3487.28"
"37.90000","3.15807","3490.94"
"38.00000","3.16643","3495.64"
"38.10000","3.17540","3499.65"
"38.20000","3.18387","3503.99"
"38.30000","3.19203","3506.02"
"38.40000","3.20040","3508.02"
"38.50000","3.20866","3509.35"
"38.60000","3.21653","3507.98"
"38.70000","3.22489","3502.55"
"38.80000","3.23346","3487.49"
"38.83000","3.23618","3160.71"
"38.83400","3.23648","2831.66"
"38.83800","3.23699","2446.97"
"38.84200","3.23739","2048.28"