File: Data_Processing/Tensile-Data/Sequence_57.csv
General : Start date,"11/5/2024 8:48 AM"
General : End date,"11/5/2024 8:49 AM"
Specimen notes : Specimen note 1,"Day 3, blue, 230, batch 18, seq 57"
Test : Rate 1,"5.00000",mm/min

Time,Extension,Load
(s),(mm),(N)
"0.00000","0.00000","0.83345"
"0.10000","0.00131","0.87419"
"0.20000","0.01038","11.98300"
"0.30000","0.02369","38.83439"
"0.40000","0.03246","56.36654"
"0.50000","0.04062","70.17068"
"0.60000","0.04959","87.54378"
"0.70000","0.05806","101.523"
"0.80000","0.06683","116.197"
"0.90000","0.07539","132.408"
"1.00000","0.08376","144.887"
"1.10000","0.09192","158.367"
"1.20000","0.10009","172.294"
"1.30000","0.10835","186.733"
"1.40000","0.11682","198.809"
"1.50000","0.12519","213.929"
"1.60000","0.13365","225.751"
"1.70000","0.14222","240.848"
"1.80000","0.15038","254.177"
"1.90000","0.15835","266.309"
"2.00000","0.16661","279.968"
"2.10000","0.17508","294.179"
"2.20000","0.18365","307.801"
"2.30000","0.19211","321.608"
"2.40000","0.20048","334.534"
"2.50000","0.20864","348.074"
"2.60000","0.21650","360.195"
"2.70000","0.22467","373.911"
"2.80000","0.23354","388.715"
"2.90000","0.24201","402.806"
"3.00000","0.25027","415.534"
"3.10000","0.25854","429.343"
"3.20000","0.26680","441.148"
"3.30000","0.27497","453.319"
"3.40000","0.28323","466.717"
"3.50000","0.29190","480.318"
"3.60000","0.30037","494.047"
"3.70000","0.30863","506.499"
"3.80000","0.31700","519.129"
"3.90000","0.32536","532.605"
"4.00000","0.33343","545.05"
"4.10000","0.34169","556.956"
"4.20000","0.35016","570.152"
"4.30000","0.35862","582.592"
"4.40000","0.36709","596.099"
"4.50000","0.37536","608.957"
"4.60000","0.38332","620.807"
"4.70000","0.39148","632.332"
"4.80000","0.39985","644.957"
"4.90000","0.40862","657.813"
"5.00000","0.41718","670.135"
"5.10000","0.42545","682.382"
"5.20000","0.43321","694.175"
"5.30000","0.44138","706.072"
"5.40000","0.44984","718.17"
"5.50000","0.45851","730.521"
"5.60000","0.46698","742.637"
"5.70000","0.47524","754.645"
"5.80000","0.48351","765.196"
"5.90000","0.49187","776.866"
"6.00000","0.50014","790.168"
"6.10000","0.50850","801.473"
"6.20000","0.51697","812.999"
"6.30000","0.52534","824.977"
"6.40000","0.53380","837.08"
"6.50000","0.54227","848.225"
"6.60000","0.55033","859.528"
"6.70000","0.55830","870.165"
"6.80000","0.56666","880.83"
"6.90000","0.57523","891.303"
"7.00000","0.58370","902.416"
"7.10000","0.59196","912.958"
"7.20000","0.60043","923.523"
"7.30000","0.60849","934.667"
"7.40000","0.61645","945.184"
"7.50000","0.62492","955.887"
"7.60000","0.63349","967.053"
"7.70000","0.64195","976.827"
"7.80000","0.65032","988.177"
"7.90000","0.65859","999.107"
"8.00000","0.66665","1008.51"
"8.10000","0.67471","1019.04"
"8.20000","0.68328","1029.42"
"8.30000","0.69195","1039.76"
"8.40000","0.70031","1050.96"
"8.50000","0.70828","1060.78"
"8.60000","0.71684","1070.55"
"8.70000","0.72531","1081.26"
"8.80000","0.73348","1090.91"
"8.90000","0.74164","1100.46"
"9.00000","0.75021","1111.66"
"9.10000","0.75888","1121.86"
"9.20000","0.76704","1131.81"
"9.30000","0.77530","1140.79"
"9.40000","0.78347","1150.45"
"9.50000","0.79163","1160.84"
"9.60000","0.80010","1170.89"
"9.70000","0.80867","1182.06"
"9.80000","0.81713","1191.46"
"9.90000","0.82530","1201.24"
"10.00000","0.83326","1210.91"
"10.10000","0.84153","1218.85"
"10.20000","0.84989","1228.09"
"10.30000","0.85846","1238.68"
"10.40000","0.86683","1247.38"
"10.50000","0.87519","1256.52"
"10.60000","0.88336","1265.97"
"10.70000","0.89142","1273.48"
"10.80000","0.89968","1281.76"
"10.90000","0.90825","1290.84"
"11.00000","0.91682","1300.48"
"11.10000","0.92498","1308.31"
"11.20000","0.93355","1317.66"
"11.30000","0.94192","1326.78"
"11.40000","0.95018","1334.93"
"11.50000","0.95825","1344.11"
"11.60000","0.96661","1351.86"
"11.70000","0.97518","1360.96"
"11.80000","0.98365","1369.53"
"11.90000","0.99211","1378.32"
"12.00000","1.00038","1386.35"
"12.10000","1.00824","1396.12"
"12.20000","1.01650","1404.33"
"12.30000","1.02507","1413.82"
"12.40000","1.03364","1422.7"
"12.50000","1.04200","1431.32"
"12.60000","1.05047","1438.76"
"12.70000","1.05874","1446.55"
"12.80000","1.06670","1453.89"
"12.90000","1.07486","1461.5"
"13.00000","1.08343","1471.32"
"13.10000","1.09180","1480.42"
"13.20000","1.10006","1488.04"
"13.30000","1.10833","1496"
"13.40000","1.11679","1504.22"
"13.50000","1.12516","1512.7"
"13.60000","1.13322","1520.65"
"13.70000","1.14169","1529.49"
"13.80000","1.15026","1537.34"
"13.90000","1.15842","1545.04"
"14.00000","1.16689","1553.46"
"14.10000","1.17515","1561.47"
"14.20000","1.18322","1569.61"
"14.30000","1.19148","1578.12"
"14.40000","1.19985","1585.5"
"14.50000","1.20882","1594.41"
"14.60000","1.21718","1603.38"
"14.70000","1.22515","1611.24"
"14.80000","1.23341","1618.77"
"14.90000","1.24188","1627.88"
"15.00000","1.25024","1636.91"
"15.10000","1.25871","1643.49"
"15.20000","1.26718","1652.22"
"15.30000","1.27554","1660.98"
"15.40000","1.28361","1668.12"
"15.50000","1.29167","1676.65"
"15.60000","1.29994","1683.51"
"15.70000","1.30830","1692.07"
"15.80000","1.31687","1701.52"
"15.90000","1.32544","1708.07"
"16.00000","1.33380","1717.08"
"16.10000","1.34197","1724.89"
"16.20000","1.34993","1732.51"
"16.30000","1.35809","1741.04"
"16.40000","1.36666","1749.99"
"16.50000","1.37523","1758.74"
"16.60000","1.38349","1765.99"
"16.70000","1.39216","1775.22"
"16.80000","1.40033","1782.73"
"16.90000","1.40809","1790.47"
"17.00000","1.41645","1798.84"
"17.10000","1.42522","1808.34"
"17.20000","1.43379","1816.04"
"17.30000","1.44216","1823.4"
"17.40000","1.45052","1830.96"
"17.50000","1.45848","1839.02"
"17.60000","1.46645","1846.62"
"17.70000","1.47501","1854.3"
"17.80000","1.48378","1862.02"
"17.90000","1.49215","1871.19"
"18.00000","1.50031","1878.81"
"18.10000","1.50868","1886.37"
"18.20000","1.51684","1893.88"
"18.30000","1.52501","1901.76"
"18.40000","1.53317","1909.16"
"18.50000","1.54184","1918"
"18.60000","1.55041","1925.79"
"18.70000","1.55867","1933.16"
"18.80000","1.56694","1940.8"
"18.90000","1.57510","1949.23"
"19.00000","1.58317","1957.44"
"19.10000","1.59163","1965.31"
"19.20000","1.60020","1974.05"
"19.30000","1.60887","1981.52"
"19.40000","1.61713","1990.13"
"19.50000","1.62510","1996.65"
"19.60000","1.63326","2005"
"19.70000","1.64163","2013.3"
"19.80000","1.65019","2020.84"
"19.90000","1.65856","2030.34"
"20.00000","1.66682","2038.46"
"20.10000","1.67519","2047.13"
"20.20000","1.68346","2054.18"
"20.30000","1.69152","2062.05"
"20.40000","1.70009","2069.86"
"20.50000","1.70855","2078.45"
"20.60000","1.71692","2087.09"
"20.70000","1.72539","2094.85"
"20.80000","1.73365","2102.38"
"20.90000","1.74181","2109.44"
"21.00000","1.74978","2118.05"
"21.10000","1.75804","2124.79"
"21.20000","1.76661","2132.97"
"21.30000","1.77508","2140.93"
"21.40000","1.78364","2148.91"
"21.50000","1.79191","2156.78"
"21.60000","1.79987","2163.84"
"21.70000","1.80804","2171.51"
"21.80000","1.81670","2180.37"
"21.90000","1.82537","2188.74"
"22.00000","1.83384","2196.32"
"22.10000","1.84200","2204.69"
"22.20000","1.85027","2213.55"
"22.30000","1.85833","2220.88"
"22.40000","1.86650","2227.78"
"22.50000","1.87506","2236.85"
"22.60000","1.88363","2245.8"
"22.70000","1.89190","2253.49"
"22.80000","1.90006","2260.95"
"22.90000","1.90853","2269.97"
"23.00000","1.91669","2276.98"
"23.10000","1.92496","2284.57"
"23.20000","1.93322","2292.96"
"23.30000","1.94189","2301.7"
"23.40000","1.95036","2309.31"
"23.50000","1.95832","2316.61"
"23.60000","1.96669","2324.58"
"23.70000","1.97505","2333.29"
"23.80000","1.98352","2341.02"
"23.90000","1.99178","2348.21"
"24.00000","2.00035","2356.45"
"24.10000","2.00892","2364.38"
"24.20000","2.01688","2371.71"
"24.30000","2.02494","2379.4"
"24.40000","2.03321","2387.68"
"24.50000","2.04178","2394.9"
"24.60000","2.05034","2402.59"
"24.70000","2.05851","2411.15"
"24.80000","2.06687","2417.84"
"24.90000","2.07524","2426.28"
"25.00000","2.08340","2434.36"
"25.10000","2.09167","2441.46"
"25.20000","2.10014","2448.81"
"25.30000","2.10850","2458.32"
"25.40000","2.11697","2465.72"
"25.50000","2.12544","2473.3"
"25.60000","2.13370","2481.08"
"25.70000","2.14176","2488.07"
"25.80000","2.14983","2496.4"
"25.90000","2.15829","2504.08"
"26.00000","2.16696","2511.52"
"26.10000","2.17543","2519.6"
"26.20000","2.18379","2527.91"
"26.30000","2.19206","2535.2"
"26.40000","2.20002","2542.9"
"26.50000","2.20809","2550.67"
"26.60000","2.21655","2557.33"
"26.70000","2.22522","2564.74"
"26.80000","2.23359","2572.82"
"26.90000","2.24185","2581.32"
"27.00000","2.25012","2588.11"
"27.10000","2.25828","2595.8"
"27.20000","2.26645","2603.32"
"27.30000","2.27511","2612.21"
"27.40000","2.28358","2620.05"
"27.50000","2.29174","2627.42"
"27.60000","2.30021","2635.52"
"27.70000","2.30868","2643.38"
"27.80000","2.31684","2649.96"
"27.90000","2.32501","2658.6"
"28.00000","2.33347","2666.44"
"28.10000","2.34214","2674.26"
"28.20000","2.35041","2681.61"
"28.30000","2.35877","2688.93"
"28.40000","2.36694","2697.37"
"28.50000","2.37490","2704.02"
"28.60000","2.38316","2711.52"
"28.70000","2.39183","2720.22"
"28.80000","2.40050","2727.37"
"28.90000","2.40897","2734.68"
"29.00000","2.41693","2742.39"
"29.10000","2.42499","2749.83"
"29.20000","2.43346","2756.96"
"29.30000","2.44173","2765.07"
"29.40000","2.45019","2772.53"
"29.50000","2.45866","2780.11"
"29.60000","2.46682","2787.25"
"29.70000","2.47499","2794.11"
"29.80000","2.48315","2802.52"
"29.90000","2.49152","2809.94"
"30.00000","2.50009","2817.33"
"30.10000","2.50835","2825.23"
"30.20000","2.51692","2833.62"
"30.30000","2.52549","2840.25"
"30.40000","2.53365","2848.43"
"30.50000","2.54161","2856.43"
"30.60000","2.54988","2863.52"
"30.70000","2.55844","2870.47"
"30.80000","2.56701","2879.1"
"30.90000","2.57548","2887.19"
"31.00000","2.58384","2893.66"
"31.10000","2.59181","2901.18"
"31.20000","2.59987","2909.59"
"31.30000","2.60834","2917.34"
"31.40000","2.61711","2925.72"
"31.50000","2.62567","2933.07"
"31.60000","2.63384","2940.16"
"31.70000","2.64200","2948.28"
"31.80000","2.65017","2954.4"
"31.90000","2.65813","2961.95"
"32.00000","2.66650","2969.43"
"32.10000","2.67516","2977.2"
"32.20000","2.68343","2984.79"
"32.30000","2.69159","2991.67"
"32.40000","2.69996","2999.37"
"32.50000","2.70832","3007.13"
"32.60000","2.71639","3014.14"
"32.70000","2.72475","3022.66"
"32.80000","2.73342","3029.89"
"32.90000","2.74199","3038.15"
"33.00000","2.75026","3045.62"
"33.10000","2.75862","3052.8"
"33.20000","2.76668","3059.71"
"33.30000","2.77495","3067.98"
"33.40000","2.78332","3074.29"
"33.50000","2.79208","3083.62"
"33.60000","2.80055","3089.88"
"33.70000","2.80861","3098.13"
"33.80000","2.81668","3105.19"
"33.90000","2.82484","3113.11"
"34.00000","2.83331","3119.73"
"34.10000","2.84178","3127.72"
"34.20000","2.85044","3136.52"
"34.30000","2.85881","3143.8"
"34.40000","2.86697","3151.18"
"34.50000","2.87514","3158.93"
"34.60000","2.88320","3165.37"
"34.70000","2.89157","3172.42"
"34.80000","2.90014","3180.92"
"34.90000","2.90870","3188.86"
"35.00000","2.91717","3195.88"
"35.10000","2.92554","3203.42"
"35.20000","2.93360","3210.59"
"35.30000","2.94156","3217.21"
"35.40000","2.94993","3224.63"
"35.50000","2.95860","3232.48"
"35.60000","2.96706","3239.41"
"35.70000","2.97533","3247.76"
"35.80000","2.98349","3254.8"
"35.90000","2.99155","3261.75"
"36.00000","2.99972","3269.79"
"36.10000","3.00839","3276.88"
"36.20000","3.01695","3283.8"
"36.30000","3.02532","3292.27"
"36.40000","3.03359","3299.14"
"36.50000","3.04185","3306.68"
"36.60000","3.05002","3313.49"
"36.70000","3.05838","3320.65"
"36.80000","3.06685","3328.24"
"36.90000","3.07531","3334.85"
"37.00000","3.08368","3343.83"
"37.10000","3.09205","3351.57"
"37.20000","3.10041","3356.8"
"37.30000","3.10858","3364.03"
"37.40000","3.11664","3370.28"
"37.50000","3.12501","3378.98"
"37.60000","3.13367","3386.21"
"37.70000","3.14214","3392.92"
"37.80000","3.15031","3400.74"
"37.90000","3.15847","3407.69"
"38.00000","3.16643","3414.07"
"38.10000","3.17470","3421.22"
"38.20000","3.18337","3428.88"
"38.30000","3.19193","3436.56"
"38.40000","3.20040","3443.71"
"38.50000","3.20856","3450.73"
"38.60000","3.21673","3458.15"
"38.70000","3.22499","3463.8"
"38.80000","3.23346","3472.01"
"38.90000","3.24203","3478.73"
"39.00000","3.25039","3485.32"
"39.10000","3.25856","3492.82"
"39.20000","3.26682","3499.84"
"39.30000","3.27479","3506.13"
"39.40000","3.28325","3513.22"
"39.50000","3.29162","3519.7"
"39.60000","3.30029","3527.87"
"39.70000","3.30875","3534.65"
"39.80000","3.31712","3541.49"
"39.90000","3.32538","3548.15"
"40.00000","3.33345","3555.58"
"40.10000","3.34151","3562.11"
"40.20000","3.35008","3568.17"
"40.30000","3.35865","3575.54"
"40.40000","3.36701","3582.46"
"40.50000","3.37548","3588.39"
"40.60000","3.38344","3595.61"
"40.70000","3.39140","3601.41"
"40.80000","3.39967","3606.82"
"40.90000","3.40854","3615.18"
"41.00000","3.41711","3622.23"
"41.10000","3.42537","3628.62"
"41.20000","3.43364","3635.81"
"41.30000","3.44200","3641.6"
"41.40000","3.44996","3648.01"
"41.50000","3.45813","3654.32"
"41.60000","3.46680","3661.24"
"41.70000","3.47526","3667.96"
"41.80000","3.48353","3674.4"
"41.90000","3.49210","3681.38"
"42.00000","3.50046","3687.8"
"42.10000","3.50853","3694.41"
"42.20000","3.51659","3699.71"
"42.30000","3.52506","3705.76"
"42.40000","3.53372","3712.81"
"42.50000","3.54209","3718.85"
"42.60000","3.55035","3724.52"
"42.70000","3.55852","3730.28"
"42.80000","3.56658","3736.22"
"42.90000","3.57495","3742.25"
"43.00000","3.58352","3748.3"
"43.10000","3.59218","3753.8"
"43.20000","3.60045","3760.83"
"43.30000","3.60821","3764.71"
"43.40000","3.61637","3770.08"
"43.50000","3.62474","3775.85"
"43.60000","3.63331","3782.61"
"43.70000","3.64198","3788"
"43.80000","3.65024","3792.32"
"43.90000","3.65871","3797.63"
"44.00000","3.66687","3803.94"
"44.10000","3.67484","3808.49"
"44.20000","3.68340","3813.61"
"44.30000","3.69197","3819.62"
"44.40000","3.70024","3825.04"
"44.50000","3.70880","3829.01"
"44.60000","3.71727","3835.27"
"44.70000","3.72533","3839.29"
"44.80000","3.73319","3842.84"
"44.90000","3.74156","3847.26"
"45.00000","3.75013","3853.23"
"45.10000","3.75870","3857.1"
"45.20000","3.76706","3860.29"
"45.30000","3.77523","3866.24"
"45.40000","3.78329","3870.49"
"45.50000","3.79155","3874.61"
"45.60000","3.80012","3877.46"
"45.70000","3.80859","3881.18"
"45.80000","3.81695","3884.95"
"45.90000","3.82532","3888.02"
"46.00000","3.83359","3890.88"
"46.10000","3.84175","3894.04"
"46.20000","3.84991","3896.36"
"46.30000","3.85838","3897.62"
"46.40000","3.86685","3900.32"
"46.50000","3.87521","3902.24"
"46.60000","3.88358","3903.02"
"46.70000","3.89194","3903.92"
"46.80000","3.90021","3905.99"
"46.90000","3.90827","3906.25"
"47.00000","3.91664","3904.78"
"47.10000","3.92531","3904.71"
"47.20000","3.93387","3904.55"
"47.30000","3.94204","3901.61"
"47.40000","3.95020","3899.08"
"47.50000","3.95827","3895"
"47.60000","3.96653","3891.75"
"47.70000","3.97510","3887"
"47.80000","3.98377","3881.96"
"47.90000","3.99223","3874.55"
"48.00000","4.00030","3866.22"
"48.10000","4.00836","3854.49"
"48.20000","4.01673","3839.17"
"48.30000","4.02519","3819.98"
"48.40000","4.03356","3791.43"
"48.50000","4.04203","3739.82"
"48.57400","4.04817","3412.46"
"48.57800","4.04858","3085.94"
"48.58200","4.04898","2701.7"
"48.58600","4.04938","2280.94"
"48.58800","4.04959","2073.06"