File: Data_Processing/Tensile-Data/Sequence_38.csv
General : Start date,"10/29/2024 10:40 AM"
General : End date,"10/29/2024 10:41 AM"
Specimen notes : Specimen note 1,"Day 2, black, 230, batch 6, seq 38"
Test : Rate 1,"5.00000",mm/min

Time,Extension,Load
(s),(mm),(N)
"0.00000","0.00000","-0.09266"
"0.10000","0.00151","0.55610"
"0.20000","0.01078","12.67566"
"0.30000","0.02338","37.43190"
"0.40000","0.03235","54.76661"
"0.50000","0.04082","69.96228"
"0.60000","0.04959","85.88350"
"0.70000","0.05806","99.43613"
"0.80000","0.06652","114.525"
"0.90000","0.07519","128.178"
"1.00000","0.08386","143.089"
"1.10000","0.09213","157.627"
"1.20000","0.10019","172.407"
"1.30000","0.10825","184.479"
"1.40000","0.11672","199.043"
"1.50000","0.12529","212.025"
"1.60000","0.13375","225.838"
"1.70000","0.14212","240.019"
"1.80000","0.15038","253.886"
"1.90000","0.15845","268.412"
"2.00000","0.16661","280.229"
"2.10000","0.17498","294.422"
"2.20000","0.18355","308.676"
"2.30000","0.19171","321.479"
"2.40000","0.20008","336.245"
"2.50000","0.20844","349.438"
"2.60000","0.21650","362.957"
"2.70000","0.22477","376.999"
"2.80000","0.23324","390.443"
"2.90000","0.24180","405.278"
"3.00000","0.25027","419.379"
"3.10000","0.25843","432.649"
"3.20000","0.26700","445.816"
"3.30000","0.27537","459.717"
"3.40000","0.28333","472.967"
"3.50000","0.29170","485.202"
"3.60000","0.30037","499.813"
"3.70000","0.30883","513.706"
"3.80000","0.31710","526.883"
"3.90000","0.32526","539.333"
"4.00000","0.33343","552.297"
"4.10000","0.34169","565.873"
"4.20000","0.34996","578.215"
"4.30000","0.35872","591.881"
"4.40000","0.36699","606.416"
"4.50000","0.37525","618.935"
"4.60000","0.38332","632.092"
"4.70000","0.39148","644.358"
"4.80000","0.39975","656.949"
"4.90000","0.40821","670.619"
"5.00000","0.41688","684.299"
"5.10000","0.42525","697.504"
"5.20000","0.43361","709.594"
"5.30000","0.44168","722.197"
"5.40000","0.44994","734.665"
"5.50000","0.45821","746.981"
"5.60000","0.46667","760.578"
"5.70000","0.47514","773.745"
"5.80000","0.48351","786.08"
"5.90000","0.49187","798.955"
"6.00000","0.50014","810.097"
"6.10000","0.50840","823.554"
"6.20000","0.51667","834.877"
"6.30000","0.52513","847.484"
"6.40000","0.53360","861.028"
"6.50000","0.54227","872.711"
"6.60000","0.55053","884.998"
"6.70000","0.55850","896.534"
"6.80000","0.56656","908.843"
"6.90000","0.57503","920.6"
"7.00000","0.58339","933.432"
"7.10000","0.59156","944.102"
"7.20000","0.60023","956.994"
"7.30000","0.60869","968.685"
"7.40000","0.61666","980.088"
"7.50000","0.62482","991.085"
"7.60000","0.63319","1002.6"
"7.70000","0.64175","1014.61"
"7.80000","0.65012","1025.09"
"7.90000","0.65848","1036.69"
"8.00000","0.66665","1048.12"
"8.10000","0.67451","1058.84"
"8.20000","0.68288","1070.17"
"8.30000","0.69165","1082.8"
"8.40000","0.70031","1093.4"
"8.50000","0.70838","1104.79"
"8.60000","0.71644","1113.84"
"8.70000","0.72511","1126.37"
"8.80000","0.73358","1137.54"
"8.90000","0.74164","1148.41"
"9.00000","0.75021","1159.55"
"9.10000","0.75877","1171.02"
"9.20000","0.76714","1181.84"
"9.30000","0.77541","1193.61"
"9.40000","0.78337","1202.62"
"9.50000","0.79143","1213.17"
"9.60000","0.79990","1223.91"
"9.70000","0.80857","1235.25"
"9.80000","0.81703","1246.4"
"9.90000","0.82560","1257.66"
"10.00000","0.83366","1267.35"
"10.10000","0.84173","1278.32"
"10.20000","0.84979","1289.01"
"10.30000","0.85806","1299.26"
"10.40000","0.86693","1309.88"
"10.50000","0.87549","1320.56"
"10.60000","0.88386","1331.53"
"10.70000","0.89182","1342.04"
"10.80000","0.89968","1351.07"
"10.90000","0.90805","1361.87"
"11.00000","0.91652","1372.66"
"11.10000","0.92518","1382.04"
"11.20000","0.93355","1392.4"
"11.30000","0.94192","1403.08"
"11.40000","0.94998","1412.4"
"11.50000","0.95814","1421.94"
"11.60000","0.96641","1432.13"
"11.70000","0.97488","1441.58"
"11.80000","0.98344","1452.53"
"11.90000","0.99211","1461.93"
"12.00000","1.00068","1472.05"
"12.10000","1.00874","1480.78"
"12.20000","1.01660","1488.42"
"12.30000","1.02487","1497.65"
"12.40000","1.03354","1507.92"
"12.50000","1.04211","1516.8"
"12.60000","1.05037","1525.6"
"12.70000","1.05853","1534.05"
"12.80000","1.06670","1543.32"
"12.90000","1.07476","1552.62"
"13.00000","1.08333","1561.31"
"13.10000","1.09200","1571.12"
"13.20000","1.10046","1580.54"
"13.30000","1.10853","1589.73"
"13.40000","1.11659","1598"
"13.50000","1.12486","1607.38"
"13.60000","1.13302","1616.55"
"13.70000","1.14149","1625.14"
"13.80000","1.15016","1635.66"
"13.90000","1.15852","1644.3"
"14.00000","1.16669","1652.95"
"14.10000","1.17485","1661.23"
"14.20000","1.18312","1670.22"
"14.30000","1.19158","1677.64"
"14.40000","1.19995","1686.11"
"14.50000","1.20862","1696.13"
"14.60000","1.21708","1704.69"
"14.70000","1.22545","1713.26"
"14.80000","1.23361","1721.21"
"14.90000","1.24158","1729.17"
"15.00000","1.24984","1737.43"
"15.10000","1.25821","1745.83"
"15.20000","1.26718","1754.29"
"15.30000","1.27544","1763.88"
"15.40000","1.28351","1772.22"
"15.50000","1.29157","1780.49"
"15.60000","1.29983","1788.84"
"15.70000","1.30830","1797.36"
"15.80000","1.31687","1805.41"
"15.90000","1.32523","1814.76"
"16.00000","1.33360","1823.23"
"16.10000","1.34187","1831.66"
"16.20000","1.34993","1839.5"
"16.30000","1.35819","1847.61"
"16.40000","1.36676","1857.23"
"16.50000","1.37513","1865.78"
"16.60000","1.38339","1874.15"
"16.70000","1.39196","1882.94"
"16.80000","1.40053","1891.96"
"16.90000","1.40849","1899.7"
"17.00000","1.41635","1906.87"
"17.10000","1.42482","1915.12"
"17.20000","1.43349","1924.43"
"17.30000","1.44195","1933.3"
"17.40000","1.45032","1941.1"
"17.50000","1.45848","1949.13"
"17.60000","1.46675","1958.26"
"17.70000","1.47481","1966.54"
"17.80000","1.48328","1974.25"
"17.90000","1.49215","1984.13"
"18.00000","1.50041","1992.08"
"18.10000","1.50848","1999.81"
"18.20000","1.51684","2008.18"
"18.30000","1.52521","2017.02"
"18.40000","1.53347","2025.93"
"18.50000","1.54174","2034.04"
"18.60000","1.55011","2041.62"
"18.70000","1.55857","2050.89"
"18.80000","1.56694","2059.56"
"18.90000","1.57490","2066.33"
"19.00000","1.58306","2074.67"
"19.10000","1.59153","2083.93"
"19.20000","1.60000","2092.42"
"19.30000","1.60867","2100.74"
"19.40000","1.61713","2109.69"
"19.50000","1.62550","2117.58"
"19.60000","1.63356","2126.04"
"19.70000","1.64132","2132.79"
"19.80000","1.64969","2140.94"
"19.90000","1.65856","2150.57"
"20.00000","1.66713","2158.44"
"20.10000","1.67539","2166.54"
"20.20000","1.68356","2174.42"
"20.30000","1.69172","2181.76"
"20.40000","1.69988","2190.33"
"20.50000","1.70825","2198.98"
"20.60000","1.71692","2207.63"
"20.70000","1.72528","2216.74"
"20.80000","1.73385","2225.08"
"20.90000","1.74202","2232.89"
"21.00000","1.75008","2240.69"
"21.10000","1.75834","2249.15"
"21.20000","1.76651","2257.02"
"21.30000","1.77498","2265.59"
"21.40000","1.78354","2274.17"
"21.50000","1.79211","2282.04"
"21.60000","1.80038","2291.24"
"21.70000","1.80824","2298.81"
"21.80000","1.81640","2306.49"
"21.90000","1.82487","2314.77"
"22.00000","1.83344","2323.54"
"22.10000","1.84190","2331.33"
"22.20000","1.85027","2339.36"
"22.30000","1.85843","2346.81"
"22.40000","1.86619","2354.28"
"22.50000","1.87446","2362.94"
"22.60000","1.88363","2371.71"
"22.70000","1.89230","2380.7"
"22.80000","1.90036","2388.3"
"22.90000","1.90833","2396.22"
"23.00000","1.91679","2404.89"
"23.10000","1.92506","2412.06"
"23.20000","1.93332","2420.24"
"23.30000","1.94199","2429.24"
"23.40000","1.95046","2437.45"
"23.50000","1.95892","2445.87"
"23.60000","1.96709","2453.85"
"23.70000","1.97495","2461.73"
"23.80000","1.98311","2469.59"
"23.90000","1.99138","2477.55"
"24.00000","1.99995","2485.06"
"24.10000","2.00862","2494.32"
"24.20000","2.01708","2501.74"
"24.30000","2.02525","2509.79"
"24.40000","2.03311","2518.07"
"24.50000","2.04127","2526.19"
"24.60000","2.04984","2534.05"
"24.70000","2.05861","2542.79"
"24.80000","2.06708","2550.6"
"24.90000","2.07534","2558.17"
"25.00000","2.08330","2566.08"
"25.10000","2.09147","2573.97"
"25.20000","2.09983","2581.4"
"25.30000","2.10840","2590.08"
"25.40000","2.11707","2597.53"
"25.50000","2.12523","2605.74"
"25.60000","2.13370","2613.64"
"25.70000","2.14197","2621.41"
"25.80000","2.15003","2628.76"
"25.90000","2.15839","2637.24"
"26.00000","2.16696","2645.73"
"26.10000","2.17513","2653.89"
"26.20000","2.18349","2661.38"
"26.30000","2.19216","2669.9"
"26.40000","2.20022","2678.06"
"26.50000","2.20809","2685.88"
"26.60000","2.21635","2693.3"
"26.70000","2.22512","2701.39"
"26.80000","2.23359","2709.62"
"26.90000","2.24185","2718.13"
"27.00000","2.25022","2725.88"
"27.10000","2.25818","2732.92"
"27.20000","2.26634","2741.47"
"27.30000","2.27481","2748.04"
"27.40000","2.28358","2757.7"
"27.50000","2.29225","2765.7"
"27.60000","2.30011","2773.61"
"27.70000","2.30838","2779.75"
"27.80000","2.31674","2788.91"
"27.90000","2.32511","2797.04"
"28.00000","2.33347","2804.29"
"28.10000","2.34184","2812.6"
"28.20000","2.35031","2820.99"
"28.30000","2.35857","2828.4"
"28.40000","2.36674","2836.75"
"28.50000","2.37500","2844.37"
"28.60000","2.38327","2852.07"
"28.70000","2.39153","2860.18"
"28.80000","2.40010","2868.31"
"28.90000","2.40867","2876.43"
"29.00000","2.41713","2884.71"
"29.10000","2.42520","2892.13"
"29.20000","2.43316","2899.47"
"29.30000","2.44142","2907.08"
"29.40000","2.45009","2916.17"
"29.50000","2.45866","2924.25"
"29.60000","2.46703","2932.12"
"29.70000","2.47509","2939.45"
"29.80000","2.48325","2946.66"
"29.90000","2.49152","2953.85"
"30.00000","2.49988","2961.97"
"30.10000","2.50845","2969.63"
"30.20000","2.51682","2977.96"
"30.30000","2.52508","2985.37"
"30.40000","2.53355","2993.23"
"30.50000","2.54181","3000.79"
"30.60000","2.54998","3007.49"
"30.70000","2.55844","3016.48"
"30.80000","2.56671","3023.02"
"30.90000","2.57508","3031.04"
"31.00000","2.58374","3039.46"
"31.10000","2.59231","3048.06"
"31.20000","2.60027","3054.46"
"31.30000","2.60834","3062.19"
"31.40000","2.61670","3070.98"
"31.50000","2.62547","3078.86"
"31.60000","2.63364","3086.84"
"31.70000","2.64180","3093.55"
"31.80000","2.65017","3101.36"
"31.90000","2.65833","3108.97"
"32.00000","2.66639","3116.65"
"32.10000","2.67506","3124.43"
"32.20000","2.68373","3132.94"
"32.30000","2.69200","3140.3"
"32.40000","2.69986","3146.77"
"32.50000","2.70822","3154.85"
"32.60000","2.71659","3161.91"
"32.70000","2.72486","3168.86"
"32.80000","2.73352","3178.48"
"32.90000","2.74189","3186.12"
"33.00000","2.75015","3193.35"
"33.10000","2.75862","3200.41"
"33.20000","2.76679","3207.73"
"33.30000","2.77485","3215.19"
"33.40000","2.78311","3223.03"
"33.50000","2.79168","3231.07"
"33.60000","2.80025","3239.18"
"33.70000","2.80872","3246.78"
"33.80000","2.81688","3253.63"
"33.90000","2.82494","3261.12"
"34.00000","2.83301","3268.25"
"34.10000","2.84168","3276.42"
"34.20000","2.85034","3284.5"
"34.30000","2.85881","3290.84"
"34.40000","2.86718","3298.59"
"34.50000","2.87514","3306.08"
"34.60000","2.88320","3313.26"
"34.70000","2.89157","3320.75"
"34.80000","2.90003","3327.43"
"34.90000","2.90850","3335.16"
"35.00000","2.91697","3342.49"
"35.10000","2.92533","3350.31"
"35.20000","2.93360","3356.76"
"35.30000","2.94156","3364.67"
"35.40000","2.94973","3371.15"
"35.50000","2.95839","3379.35"
"35.60000","2.96656","3386.11"
"35.70000","2.97482","3392.8"
"35.80000","2.98349","3400.58"
"35.90000","2.99176","3409.56"
"36.00000","2.99982","3414.88"
"36.10000","3.00798","3422.09"
"36.20000","3.01685","3429.32"
"36.30000","3.02542","3438.35"
"36.40000","3.03359","3444.54"
"36.50000","3.04205","3450.9"
"36.60000","3.05022","3458.58"
"36.70000","3.05818","3465.16"
"36.80000","3.06644","3472.59"
"36.90000","3.07521","3479.81"
"37.00000","3.08388","3488.87"
"37.10000","3.09195","3495.08"
"37.20000","3.10001","3502.11"
"37.30000","3.10838","3509.48"
"37.40000","3.11674","3516.39"
"37.50000","3.12521","3524.29"
"37.60000","3.13367","3531.33"
"37.70000","3.14204","3538.25"
"37.80000","3.15031","3545.3"
"37.90000","3.15847","3551.88"
"38.00000","3.16653","3557.82"
"38.10000","3.17480","3565.74"
"38.20000","3.18306","3572.49"
"38.30000","3.19163","3579.62"
"38.40000","3.20030","3587.2"
"38.50000","3.20866","3593.48"
"38.60000","3.21693","3600.22"
"38.70000","3.22479","3606.94"
"38.80000","3.23306","3612.84"
"38.90000","3.24172","3619.85"
"39.00000","3.25029","3626.95"
"39.10000","3.25886","3634.19"
"39.20000","3.26702","3641.04"
"39.30000","3.27489","3647.15"
"39.40000","3.28305","3653.7"
"39.50000","3.29152","3660.58"
"39.60000","3.30018","3667.95"
"39.70000","3.30875","3674.7"
"39.80000","3.31702","3680.17"
"39.90000","3.32538","3688.04"
"40.00000","3.33345","3694.86"
"40.10000","3.34161","3700.21"
"40.20000","3.34998","3706.32"
"40.30000","3.35844","3713.01"
"40.40000","3.36661","3719.55"
"40.50000","3.37538","3726.75"
"40.60000","3.38384","3733.54"
"40.70000","3.39181","3740.22"
"40.80000","3.39977","3745.02"
"40.90000","3.40814","3751.95"
"41.00000","3.41680","3758.48"
"41.10000","3.42507","3765.02"
"41.20000","3.43354","3770.93"
"41.30000","3.44200","3777.54"
"41.40000","3.44996","3783.02"
"41.50000","3.45813","3788.97"
"41.60000","3.46670","3794.87"
"41.70000","3.47547","3802.08"
"41.80000","3.48383","3807.52"
"41.90000","3.49189","3812.43"
"42.00000","3.50026","3818.5"
"42.10000","3.50863","3824.97"
"42.20000","3.51679","3829.3"
"42.30000","3.52516","3834.8"
"42.40000","3.53372","3840.05"
"42.50000","3.54199","3845.9"
"42.60000","3.55025","3851.75"
"42.70000","3.55842","3856.18"
"42.80000","3.56668","3860.98"
"42.90000","3.57495","3865.74"
"43.00000","3.58352","3871.61"
"43.10000","3.59198","3876.23"
"43.20000","3.60035","3880.64"
"43.30000","3.60861","3885.55"
"43.40000","3.61678","3889.36"
"43.50000","3.62484","3891.77"
"43.60000","3.63311","3895.47"
"43.70000","3.64177","3900.24"
"43.80000","3.65034","3904.25"
"43.90000","3.65871","3907.09"
"44.00000","3.66697","3909.63"
"44.10000","3.67514","3912.1"
"44.20000","3.68350","3913.24"
"44.30000","3.69167","3915.17"
"44.40000","3.70013","3916.04"
"44.50000","3.70860","3917.72"
"44.60000","3.71687","3917.64"
"44.70000","3.72533","3918.19"
"44.80000","3.73319","3917.37"
"44.90000","3.74146","3915.53"
"45.00000","3.75013","3913.89"
"45.10000","3.75839","3912.14"
"45.20000","3.76676","3910.02"
"45.30000","3.77543","3906.92"
"45.40000","3.78369","3903.97"
"45.50000","3.79166","3898.61"
"45.60000","3.79972","3892.27"
"45.70000","3.80819","3886.52"
"45.80000","3.81706","3881.48"
"45.90000","3.82532","3871.96"
"46.00000","3.83359","3863.08"
"46.10000","3.84185","3851.43"
"46.20000","3.84991","3838.08"
"46.30000","3.85788","3820.67"
"46.40000","3.86665","3800.33"
"46.50000","3.87562","3769.65"
"46.60000","3.88378","3709.87"
"46.64200","3.88711","3385.99"
"46.64600","3.88751","3053.19"
"46.65000","3.88791","2663.1"
"46.65400","3.88832","2241.72"