File: Data_Processing/Tensile-Data/Sequence_13.csv
General : Start date,"10/22/2024 9:46 AM"
General : End date,"10/22/2024 9:47 AM"
Specimen notes : Specimen note 1,"green, 200, batch 9, seq 13"
Test : Rate 1,"5.00000",mm/min

Time,Extension,Load
(s),(mm),(N)
"0.00000","-0.00020","0.35331"
"0.10000","0.00091","-0.02435"
"0.20000","0.00998","12.10931"
"0.30000","0.02308","36.39701"
"0.40000","0.03225","54.62806"
"0.50000","0.04072","69.58007"
"0.60000","0.04949","84.61513"
"0.70000","0.05806","98.30252"
"0.80000","0.06642","113.287"
"0.90000","0.07489","127.488"
"1.00000","0.08326","141.482"
"1.10000","0.09192","155.381"
"1.20000","0.10009","169.039"
"1.30000","0.10845","182.338"
"1.40000","0.11672","195.359"
"1.50000","0.12488","209.742"
"1.60000","0.13325","222.869"
"1.70000","0.14162","237.303"
"1.80000","0.15028","251.685"
"1.90000","0.15875","266.995"
"2.00000","0.16681","280.072"
"2.10000","0.17498","294.456"
"2.20000","0.18304","306.219"
"2.30000","0.19151","321.6"
"2.40000","0.20028","336.08"
"2.50000","0.20854","350.757"
"2.60000","0.21691","365.855"
"2.70000","0.22507","378.532"
"2.80000","0.23314","391.461"
"2.90000","0.24130","405.251"
"3.00000","0.24987","419.248"
"3.10000","0.25854","434.505"
"3.20000","0.26690","448.254"
"3.30000","0.27517","461.248"
"3.40000","0.28313","474.557"
"3.50000","0.29160","488.615"
"3.60000","0.29996","502.64"
"3.70000","0.30843","515.727"
"3.80000","0.31679","529.779"
"3.90000","0.32516","543.688"
"4.00000","0.33343","556.967"
"4.10000","0.34159","571.193"
"4.20000","0.34985","584.944"
"4.30000","0.35822","598.345"
"4.40000","0.36669","611.005"
"4.50000","0.37525","623.933"
"4.60000","0.38382","638.594"
"4.70000","0.39189","651.754"
"4.80000","0.39975","664.723"
"4.90000","0.40801","677.833"
"5.00000","0.41648","691.59"
"5.10000","0.42495","704.317"
"5.20000","0.43321","717.491"
"5.30000","0.44198","731.368"
"5.40000","0.45025","744.615"
"5.50000","0.45801","757.026"
"5.60000","0.46617","769.47"
"5.70000","0.47464","784.296"
"5.80000","0.48341","798.303"
"5.90000","0.49187","811.001"
"6.00000","0.50024","823.375"
"6.10000","0.50830","836.313"
"6.20000","0.51637","849.352"
"6.30000","0.52463","863.06"
"6.40000","0.53330","876.206"
"6.50000","0.54207","889.541"
"6.60000","0.55043","902.598"
"6.70000","0.55840","914.865"
"6.80000","0.56666","927.727"
"6.90000","0.57493","939.798"
"7.00000","0.58319","953.443"
"7.10000","0.59156","965.891"
"7.20000","0.60013","978.572"
"7.30000","0.60869","992.055"
"7.40000","0.61686","1004.54"
"7.50000","0.62502","1017.13"
"7.60000","0.63319","1029.23"
"7.70000","0.64155","1042.03"
"7.80000","0.65002","1055.6"
"7.90000","0.65859","1068.68"
"8.00000","0.66705","1081.83"
"8.10000","0.67532","1094.28"
"8.20000","0.68328","1106.37"
"8.30000","0.69124","1117.99"
"8.40000","0.69961","1131.61"
"8.50000","0.70828","1144.19"
"8.60000","0.71674","1157.26"
"8.70000","0.72511","1169.46"
"8.80000","0.73307","1181.13"
"8.90000","0.74114","1193.73"
"9.00000","0.74960","1206.35"
"9.10000","0.75817","1220.01"
"9.20000","0.76674","1232.58"
"9.30000","0.77530","1245.83"
"9.40000","0.78357","1257.71"
"9.50000","0.79183","1270.62"
"9.60000","0.80000","1283.33"
"9.70000","0.80826","1295.12"
"9.80000","0.81673","1307.85"
"9.90000","0.82510","1320.26"
"10.00000","0.83336","1331.98"
"10.10000","0.84203","1344.21"
"10.20000","0.85030","1356.44"
"10.30000","0.85806","1367.17"
"10.40000","0.86632","1378.77"
"10.50000","0.87489","1391.06"
"10.60000","0.88356","1403.97"
"10.70000","0.89192","1417.3"
"10.80000","0.90019","1429.99"
"10.90000","0.90825","1441.57"
"11.00000","0.91631","1452.69"
"11.10000","0.92458","1464.77"
"11.20000","0.93335","1477.58"
"11.30000","0.94182","1491.36"
"11.40000","0.95008","1502.87"
"11.50000","0.95825","1514.85"
"11.60000","0.96661","1527.52"
"11.70000","0.97478","1538"
"11.80000","0.98314","1549.82"
"11.90000","0.99181","1562.19"
"12.00000","1.00018","1573.69"
"12.10000","1.00834","1585.35"
"12.20000","1.01671","1598.01"
"12.30000","1.02467","1608.3"
"12.40000","1.03303","1620.2"
"12.50000","1.04150","1632.21"
"12.60000","1.05007","1644.67"
"12.70000","1.05864","1656.87"
"12.80000","1.06700","1668.8"
"12.90000","1.07517","1680.37"
"13.00000","1.08303","1692"
"13.10000","1.09149","1702.54"
"13.20000","1.09996","1714.36"
"13.30000","1.10853","1727.01"
"13.40000","1.11689","1738.99"
"13.50000","1.12526","1750.75"
"13.60000","1.13322","1761.11"
"13.70000","1.14129","1771.93"
"13.80000","1.14975","1783.54"
"13.90000","1.15832","1795.38"
"14.00000","1.16679","1807.31"
"14.10000","1.17515","1817.88"
"14.20000","1.18362","1829.31"
"14.30000","1.19158","1840.29"
"14.40000","1.19975","1851.56"
"14.50000","1.20831","1862.8"
"14.60000","1.21688","1874.79"
"14.70000","1.22484","1886.2"
"14.80000","1.23331","1897.09"
"14.90000","1.24188","1909.52"
"15.00000","1.25014","1921.12"
"15.10000","1.25790","1931.46"
"15.20000","1.26637","1938.13"
"15.30000","1.27504","1949.14"
"15.40000","1.28341","1960.4"
"15.50000","1.29177","1971.68"
"15.60000","1.30014","1982.64"
"15.70000","1.30810","1992.78"
"15.80000","1.31616","2004.48"
"15.90000","1.32473","2015.57"
"16.00000","1.33350","2028.37"
"16.10000","1.34197","2039.38"
"16.20000","1.35013","2050.31"
"16.30000","1.35840","2060.75"
"16.40000","1.36676","2072.36"
"16.50000","1.37483","2081.99"
"16.60000","1.38319","2093.24"
"16.70000","1.39186","2104.69"
"16.80000","1.40023","2115.81"
"16.90000","1.40859","2125.84"
"17.00000","1.41676","2136.8"
"17.10000","1.42492","2146.73"
"17.20000","1.43308","2157.88"
"17.30000","1.44145","2168.73"
"17.40000","1.45002","2179.72"
"17.50000","1.45848","2190.47"
"17.60000","1.46695","2200.24"
"17.70000","1.47511","2210.48"
"17.80000","1.48308","2218.42"
"17.90000","1.49134","2230.52"
"18.00000","1.50011","2241.99"
"18.10000","1.50858","2252.75"
"18.20000","1.51684","2263.55"
"18.30000","1.52501","2275"
"18.40000","1.53307","2284.68"
"18.50000","1.54144","2294.83"
"18.60000","1.54990","2304.85"
"18.70000","1.55857","2316.52"
"18.80000","1.56684","2327.16"
"18.90000","1.57520","2337.78"
"19.00000","1.58357","2346.81"
"19.10000","1.59153","2357.97"
"19.20000","1.59970","2366.73"
"19.30000","1.60826","2377.73"
"19.40000","1.61663","2387.64"
"19.50000","1.62499","2398.46"
"19.60000","1.63356","2406.62"
"19.70000","1.64173","2418.14"
"19.80000","1.64959","2427.89"
"19.90000","1.65785","2438.32"
"20.00000","1.66662","2449.1"
"20.10000","1.67529","2460.17"
"20.20000","1.68346","2470.15"
"20.30000","1.69182","2479.78"
"20.40000","1.70019","2490.52"
"20.50000","1.70835","2501.46"
"20.60000","1.71631","2511.55"
"20.70000","1.72508","2521.37"
"20.80000","1.73365","2531.16"
"20.90000","1.74192","2540.99"
"21.00000","1.75008","2551.19"
"21.10000","1.75845","2561.5"
"21.20000","1.76661","2559.87"
"21.30000","1.77477","2568.86"
"21.40000","1.78334","2578.95"
"21.50000","1.79191","2589.29"
"21.60000","1.80028","2598.85"
"21.70000","1.80834","2608.82"
"21.80000","1.81650","2617.36"
"21.90000","1.82477","2628.01"
"22.00000","1.83313","2637.47"
"22.10000","1.84180","2647.66"
"22.20000","1.85027","2657.09"
"22.30000","1.85863","2666.37"
"22.40000","1.86670","2675.59"
"22.50000","1.87486","2685.25"
"22.60000","1.88293","2694.43"
"22.70000","1.89149","2704.53"
"22.80000","1.90016","2714.73"
"22.90000","1.90873","2724.24"
"23.00000","1.91679","2733.45"
"23.10000","1.92496","2742.03"
"23.20000","1.93312","2751.56"
"23.30000","1.94139","2761.04"
"23.40000","1.94985","2770.84"
"23.50000","1.95832","2780.14"
"23.60000","1.96679","2790.08"
"23.70000","1.97525","2799.19"
"23.80000","1.98352","2808.92"
"23.90000","1.99148","2817.22"
"24.00000","1.99985","2825.91"
"24.10000","2.00841","2835.26"
"24.20000","2.01678","2844.76"
"24.30000","2.02525","2853.77"
"24.40000","2.03361","2863.28"
"24.50000","2.04178","2872.7"
"24.60000","2.04984","2879.93"
"24.70000","2.05810","2889.57"
"24.80000","2.06687","2898.49"
"24.90000","2.07524","2908.42"
"25.00000","2.08340","2916.71"
"25.10000","2.09157","2925.63"
"25.20000","2.09983","2932.47"
"25.30000","2.10800","2940.98"
"25.40000","2.11626","2949.9"
"25.50000","2.12503","2959.09"
"25.60000","2.13360","2968.13"
"25.70000","2.14146","2976.39"
"25.80000","2.14993","2984.96"
"25.90000","2.15839","2993.92"
"26.00000","2.16666","3002.79"
"26.10000","2.17503","3010.94"
"26.20000","2.18349","3019.72"
"26.30000","2.19186","3027.73"
"26.40000","2.20022","3036.26"
"26.50000","2.20839","3044.77"
"26.60000","2.21645","3053.04"
"26.70000","2.22492","3060.04"
"26.80000","2.23308","3068.56"
"26.90000","2.24165","3076.68"
"27.00000","2.25012","3085.06"
"27.10000","2.25858","3094.61"
"27.20000","2.26675","3102.47"
"27.30000","2.27481","3109.16"
"27.40000","2.28318","3117.02"
"27.50000","2.29164","3123.99"
"27.60000","2.30011","3132.82"
"27.70000","2.30838","3140.09"
"27.80000","2.31654","3144.7"
"27.90000","2.32470","3151.61"
"28.00000","2.33307","3158.16"
"28.10000","2.34144","3165.67"
"28.20000","2.35010","3174.01"
"28.30000","2.35837","3181.61"
"28.40000","2.36684","3188.79"
"28.50000","2.37530","3196.18"
"28.60000","2.38337","3202.41"
"28.70000","2.39143","3208.8"
"28.80000","2.39990","3215.78"
"28.90000","2.40806","3222.06"
"29.00000","2.41643","3229.38"
"29.10000","2.42530","3235.66"
"29.20000","2.43376","3243.6"
"29.30000","2.44163","3210.82"
"29.40000","2.44959","3204.36"
"29.50000","2.45805","3209.64"
"29.60000","2.46692","3216.02"
"29.70000","2.47519","3218.15"
"29.80000","2.48356","3223.05"
"29.90000","2.49182","3228.46"
"30.00000","2.49978","3233.61"
"30.10000","2.50805","3238"
"30.20000","2.51651","3205.73"
"30.30000","2.52528","3182.29"
"30.40000","2.53355","3185.94"
"30.50000","2.54151","3189.09"
"30.60000","2.54988","3194.6"
"30.70000","2.55824","3200.68"
"30.80000","2.56641","3207.04"
"30.90000","2.57477","3212.23"
"31.00000","2.58334","3219.77"
"31.10000","2.59171","3226.24"
"31.20000","2.60027","3232.55"
"31.30000","2.60834","3239.81"
"31.40000","2.61650","3245.61"
"31.50000","2.62487","3170.97"
"31.60000","2.63364","3184.79"
"31.70000","2.64210","3194.82"
"31.80000","2.65047","3204.18"
"31.90000","2.65863","3212.5"
"32.00000","2.66670","3220.76"
"32.10000","2.67466","3228.29"
"32.20000","2.68313","3236.16"
"32.30000","2.69190","3244.4"
"32.40000","2.70046","3252.48"
"32.50000","2.70863","3261.63"
"32.60000","2.71659","3267.92"
"32.70000","2.72475","3231.41"
"32.80000","2.73312","3242.78"
"32.90000","2.74159","3251.66"
"33.00000","2.75005","3260.55"
"33.10000","2.75852","3269.67"
"33.20000","2.76699","3277.12"
"33.30000","2.77505","3285.25"
"33.40000","2.78311","3293.18"
"33.50000","2.79128","3300.6"
"33.60000","2.79985","3308.05"
"33.70000","2.80811","3316.25"
"33.80000","2.81658","3323.64"
"33.90000","2.82525","3331.21"
"34.00000","2.83361","3338.02"
"34.10000","2.84127","3345.44"
"34.20000","2.84954","3352.79"
"34.30000","2.85821","3360.17"
"34.40000","2.86697","3368.64"
"34.50000","2.87504","3374.35"
"34.60000","2.88340","3381.16"
"34.70000","2.89167","3387.12"
"34.80000","2.89973","3393.73"
"34.90000","2.90820","3399.91"
"35.00000","2.91677","3406.15"
"35.10000","2.92543","3412.92"
"35.20000","2.93350","3418.02"
"35.30000","2.94166","3424.62"
"35.40000","2.95013","3430.99"
"35.50000","2.95839","3438.56"
"35.60000","2.96676","3443.68"
"35.70000","2.97513","3449.53"
"35.80000","2.98359","3456.02"
"35.90000","2.99186","3461.93"
"36.00000","3.00012","3467.79"
"36.10000","3.00819","3472.86"
"36.20000","3.01625","3478.67"
"36.30000","3.02482","3484.77"
"36.40000","3.03328","3490.67"
"36.50000","3.04175","3497.04"
"36.60000","3.05032","3502.03"
"36.70000","3.05848","3508.54"
"36.80000","3.06644","3513.35"
"36.90000","3.07471","3519.29"
"37.00000","3.08328","3525.37"
"37.10000","3.09205","3530.68"
"37.20000","3.10061","3536.74"
"37.30000","3.10878","3541.17"
"37.40000","3.11674","3545.5"
"37.50000","3.12460","3550.8"
"37.60000","3.13307","3555.71"
"37.70000","3.14154","3560.85"
"37.80000","3.15000","3566.85"
"37.90000","3.15847","3572.78"
"38.00000","3.16694","3577.91"
"38.10000","3.17500","3582.49"
"38.20000","3.18326","3587.4"
"38.30000","3.19163","3592.27"
"38.40000","3.19990","3596.88"
"38.50000","3.20816","3602.28"
"38.60000","3.21673","3606.36"
"38.70000","3.22530","3612.02"
"38.80000","3.23336","3616.7"
"38.90000","3.24122","3619.98"
"39.00000","3.24969","3623.85"
"39.10000","3.25836","3629.09"
"39.20000","3.26682","3634.78"
"39.30000","3.27509","3638.74"
"39.40000","3.28345","3643.47"
"39.50000","3.29162","3647.19"
"39.60000","3.29978","3651.33"
"39.70000","3.30825","3655.47"
"39.80000","3.31702","3660.13"
"39.90000","3.32528","3664.07"
"40.00000","3.33325","3667.16"
"40.10000","3.34151","3671.3"
"40.20000","3.34988","3674.83"
"40.30000","3.35814","3677.3"
"40.40000","3.36661","3681.03"
"40.50000","3.37518","3684.78"
"40.60000","3.38344","3688.33"
"40.70000","3.39171","3691.6"
"40.80000","3.39997","3693"
"40.90000","3.40814","3695"
"41.00000","3.41630","3696.97"
"41.10000","3.42467","3700.13"
"41.20000","3.43343","3702.82"
"41.30000","3.44210","3705.16"
"41.40000","3.45037","3707.52"
"41.50000","3.45823","3709.72"
"41.60000","3.46619","3710.74"
"41.70000","3.47456","3712.73"
"41.80000","3.48333","3714.36"
"41.90000","3.49189","3717"
"42.00000","3.50036","3718.73"
"42.10000","3.50842","3720.47"
"42.20000","3.51659","3720.02"
"42.30000","3.52485","3720.74"
"42.40000","3.53322","3721.92"
"42.50000","3.54169","3722.48"
"42.60000","3.55015","3723.79"
"42.70000","3.55892","3723.99"
"42.80000","3.56709","3723.92"
"42.90000","3.57495","3723.09"
"43.00000","3.58311","3721.98"
"43.10000","3.59148","3721.88"
"43.20000","3.59974","3720.7"
"43.30000","3.60811","3720.43"
"43.40000","3.61688","3719.09"
"43.50000","3.62545","3717.54"
"43.60000","3.63321","3715.25"
"43.70000","3.64117","3711.3"
"43.80000","3.64974","3708.63"
"43.90000","3.65851","3705.37"
"44.00000","3.66677","3700.16"
"44.10000","3.67514","3692"
"44.20000","3.68340","3680.12"
"44.30000","3.69137","3659.58"
"44.40000","3.69943","3600.55"
"44.50000","3.70840","3474.77"
"44.57400","3.71495","3166.98"
"44.57800","3.71535","2881.11"
"44.58200","3.71566","2530.62"
"44.58600","3.71616","2149.43"
"44.58800","3.71636","1958.28"