File: Data_Processing/Tensile-Data/Sequence_27.csv
General : Start date,"10/29/2024 10:12 AM"
General : End date,"10/29/2024 10:13 AM"
Specimen notes : Specimen note 1,"Day 2, red, 215, batch 8, seq 27"
Test : Rate 1,"5.00000",mm/min

Time,Extension,Load
(s),(mm),(N)
"0.00000","0.00000","0.94058"
"0.10000","0.00121","0.08654"
"0.20000","0.00947","10.27863"
"0.30000","0.02308","38.06085"
"0.40000","0.03235","57.84563"
"0.50000","0.04092","73.10320"
"0.60000","0.04979","88.92570"
"0.70000","0.05826","103.27"
"0.80000","0.06622","118.03"
"0.90000","0.07449","130.934"
"1.00000","0.08326","146.359"
"1.10000","0.09202","160.788"
"1.20000","0.10059","175.434"
"1.30000","0.10886","188.677"
"1.40000","0.11692","202.404"
"1.50000","0.12519","216.474"
"1.60000","0.13335","231.36"
"1.70000","0.14192","246.491"
"1.80000","0.15059","261.71"
"1.90000","0.15885","275.223"
"2.00000","0.16722","290.808"
"2.10000","0.17518","305.069"
"2.20000","0.18334","318.82"
"2.30000","0.19191","333.235"
"2.40000","0.20028","347.316"
"2.50000","0.20844","361.892"
"2.60000","0.21701","376.319"
"2.70000","0.22548","390.004"
"2.80000","0.23344","403.884"
"2.90000","0.24150","417.711"
"3.00000","0.24997","432.23"
"3.10000","0.25874","445.71"
"3.20000","0.26690","459.968"
"3.30000","0.27537","473.961"
"3.40000","0.28373","486.837"
"3.50000","0.29160","500.063"
"3.60000","0.29956","514.141"
"3.70000","0.30833","528.651"
"3.80000","0.31710","543.446"
"3.90000","0.32546","557.06"
"4.00000","0.33353","570.709"
"4.10000","0.34179","584.778"
"4.20000","0.35006","598.622"
"4.30000","0.35842","612.576"
"4.40000","0.36709","625.754"
"4.50000","0.37576","640.504"
"4.60000","0.38392","653.91"
"4.70000","0.39219","667.345"
"4.80000","0.40025","680.42"
"4.90000","0.40852","692.546"
"5.00000","0.41688","706.067"
"5.10000","0.42545","720.331"
"5.20000","0.43382","734.087"
"5.30000","0.44228","746.744"
"5.40000","0.45045","760.489"
"5.50000","0.45861","773.772"
"5.60000","0.46667","786.498"
"5.70000","0.47494","799.96"
"5.80000","0.48361","813.874"
"5.90000","0.49207","827.085"
"6.00000","0.50044","840.24"
"6.10000","0.50860","854.293"
"6.20000","0.51647","865.611"
"6.30000","0.52473","879.153"
"6.40000","0.53330","892.34"
"6.50000","0.54197","905.828"
"6.60000","0.55043","920.036"
"6.70000","0.55880","932.747"
"6.80000","0.56696","945.885"
"6.90000","0.57503","957.456"
"7.00000","0.58319","969.538"
"7.10000","0.59186","984.002"
"7.20000","0.60023","996.088"
"7.30000","0.60869","1011.15"
"7.40000","0.61726","1023.74"
"7.50000","0.62553","1036.18"
"7.60000","0.63349","1048.62"
"7.70000","0.64175","1061.44"
"7.80000","0.65022","1075.01"
"7.90000","0.65879","1087.89"
"8.00000","0.66715","1099.58"
"8.10000","0.67552","1113.27"
"8.20000","0.68368","1126.09"
"8.30000","0.69165","1138.16"
"8.40000","0.69991","1150.45"
"8.50000","0.70858","1164.32"
"8.60000","0.71705","1176.35"
"8.70000","0.72531","1189.32"
"8.80000","0.73348","1202.06"
"8.90000","0.74174","1213.64"
"9.00000","0.74970","1225.88"
"9.10000","0.75807","1238.36"
"9.20000","0.76684","1250.67"
"9.30000","0.77520","1263.05"
"9.40000","0.78347","1276.16"
"9.50000","0.79173","1288.41"
"9.60000","0.80000","1299.59"
"9.70000","0.80857","1312.3"
"9.80000","0.81683","1324.14"
"9.90000","0.82520","1336.88"
"10.00000","0.83376","1349.55"
"10.10000","0.84223","1361.28"
"10.20000","0.85050","1373"
"10.30000","0.85856","1384.37"
"10.40000","0.86662","1396.72"
"10.50000","0.87499","1407.53"
"10.60000","0.88376","1420.19"
"10.70000","0.89233","1433.22"
"10.80000","0.90049","1444.22"
"10.90000","0.90855","1455.77"
"11.00000","0.91672","1466.53"
"11.10000","0.92488","1478.66"
"11.20000","0.93335","1490.56"
"11.30000","0.94192","1501.85"
"11.40000","0.95038","1513.92"
"11.50000","0.95875","1525.12"
"11.60000","0.96681","1536.47"
"11.70000","0.97488","1546.94"
"11.80000","0.98344","1558.54"
"11.90000","0.99181","1571.69"
"12.00000","0.99997","1583.17"
"12.10000","1.00854","1594.68"
"12.20000","1.01721","1606.5"
"12.30000","1.02537","1617.12"
"12.40000","1.03313","1628.61"
"12.50000","1.04150","1639.65"
"12.60000","1.05037","1651.82"
"12.70000","1.05864","1662.88"
"12.80000","1.06700","1674.81"
"12.90000","1.07527","1685.49"
"13.00000","1.08353","1697.09"
"13.10000","1.09160","1708.09"
"13.20000","1.10006","1718.04"
"13.30000","1.10883","1730.23"
"13.40000","1.11740","1741.51"
"13.50000","1.12536","1752.04"
"13.60000","1.13353","1762.3"
"13.70000","1.14199","1774.11"
"13.80000","1.15006","1784.84"
"13.90000","1.15842","1795.99"
"14.00000","1.16699","1807.92"
"14.10000","1.17546","1818.07"
"14.20000","1.18372","1830.42"
"14.30000","1.19178","1841.05"
"14.40000","1.19985","1852.12"
"14.50000","1.20831","1862.12"
"14.60000","1.21668","1873.49"
"14.70000","1.22535","1884.92"
"14.80000","1.23392","1896.15"
"14.90000","1.24228","1906.2"
"15.00000","1.25045","1916.43"
"15.10000","1.25821","1926.91"
"15.20000","1.26647","1937.46"
"15.30000","1.27524","1948.72"
"15.40000","1.28381","1959.28"
"15.50000","1.29207","1969.06"
"15.60000","1.30044","1979.6"
"15.70000","1.30840","1989.81"
"15.80000","1.31657","2000.03"
"15.90000","1.32493","2009.71"
"16.00000","1.33360","2020.49"
"16.10000","1.34207","2031.69"
"16.20000","1.35063","2041.31"
"16.30000","1.35880","2051.97"
"16.40000","1.36686","2062.33"
"16.50000","1.37503","2072.1"
"16.60000","1.38349","2082.72"
"16.70000","1.39186","2091.76"
"16.80000","1.40033","2102.32"
"16.90000","1.40899","2112.06"
"17.00000","1.41716","2121.88"
"17.10000","1.42502","2131.36"
"17.20000","1.43318","2141.06"
"17.30000","1.44165","2150.8"
"17.40000","1.45032","2161.45"
"17.50000","1.45879","2171.18"
"17.60000","1.46715","2180.31"
"17.70000","1.47532","2190.21"
"17.80000","1.48318","2199.58"
"17.90000","1.49144","2209.45"
"18.00000","1.50021","2219.56"
"18.10000","1.50888","2228.85"
"18.20000","1.51715","2237.88"
"18.30000","1.52531","2246.96"
"18.40000","1.53368","2255.58"
"18.50000","1.54184","2265.49"
"18.60000","1.55011","2273.96"
"18.70000","1.55867","2283.59"
"18.80000","1.56724","2293.25"
"18.90000","1.57561","2300.97"
"19.00000","1.58377","2310.52"
"19.10000","1.59163","2319.56"
"19.20000","1.59990","2327.52"
"19.30000","1.60826","2335.99"
"19.40000","1.61673","2345.62"
"19.50000","1.62530","2355.07"
"19.60000","1.63366","2363.74"
"19.70000","1.64193","2372.39"
"19.80000","1.64999","2381.47"
"19.90000","1.65816","2390.26"
"20.00000","1.66662","2399.84"
"20.10000","1.67519","2408.87"
"20.20000","1.68366","2418.07"
"20.30000","1.69202","2426.97"
"20.40000","1.70019","2435.93"
"20.50000","1.70835","2444.75"
"20.60000","1.71662","2453.44"
"20.70000","1.72508","2462.81"
"20.80000","1.73365","2472"
"20.90000","1.74222","2480.56"
"21.00000","1.75068","2489.95"
"21.10000","1.75885","2499.19"
"21.20000","1.76681","2506.97"
"21.30000","1.77508","2516.12"
"21.40000","1.78364","2525.91"
"21.50000","1.79201","2534.42"
"21.60000","1.80017","2543.01"
"21.70000","1.80864","2551.65"
"21.80000","1.81711","2560.05"
"21.90000","1.82497","2568.13"
"22.00000","1.83313","2577.01"
"22.10000","1.84180","2584.99"
"22.20000","1.85047","2594.74"
"22.30000","1.85874","2603.41"
"22.40000","1.86700","2612.56"
"22.50000","1.87496","2620.24"
"22.60000","1.88313","2628.31"
"22.70000","1.89149","2637.02"
"22.80000","1.90026","2647"
"22.90000","1.90893","2655.62"
"23.00000","1.91699","2664.92"
"23.10000","1.92526","2672.89"
"23.20000","1.93373","2682.43"
"23.30000","1.94189","2690.13"
"23.40000","1.95026","2699.21"
"23.50000","1.95852","2708.42"
"23.60000","1.96699","2716.73"
"23.70000","1.97535","2725.33"
"23.80000","1.98362","2734.7"
"23.90000","1.99178","2742.25"
"24.00000","2.00015","2750.51"
"24.10000","2.00841","2759.7"
"24.20000","2.01698","2767.78"
"24.30000","2.02555","2776.87"
"24.40000","2.03381","2785.18"
"24.50000","2.04198","2794.3"
"24.60000","2.05004","2802.83"
"24.70000","2.05821","2810.04"
"24.80000","2.06677","2820.19"
"24.90000","2.07534","2828.66"
"25.00000","2.08381","2837.12"
"25.10000","2.09187","2846"
"25.20000","2.10014","2854.58"
"25.30000","2.10830","2862.59"
"25.40000","2.11667","2870.06"
"25.50000","2.12503","2879.78"
"25.60000","2.13350","2887.24"
"25.70000","2.14176","2895.9"
"25.80000","2.15033","2904.74"
"25.90000","2.15860","2913.34"
"26.00000","2.16676","2921.12"
"26.10000","2.17523","2928.91"
"26.20000","2.18349","2938.53"
"26.30000","2.19186","2945.8"
"26.40000","2.20053","2954.62"
"26.50000","2.20909","2962.65"
"26.60000","2.21706","2970.66"
"26.70000","2.22502","2978.72"
"26.80000","2.23339","2987.02"
"26.90000","2.24215","2995.73"
"27.00000","2.25052","3003.73"
"27.10000","2.25868","3011.38"
"27.20000","2.26705","3019.74"
"27.30000","2.27532","3027.67"
"27.40000","2.28328","3035.06"
"27.50000","2.29174","3043.67"
"27.60000","2.30051","3051.46"
"27.70000","2.30888","3060.16"
"27.80000","2.31684","3068.42"
"27.90000","2.32501","3076.06"
"28.00000","2.33337","3083.5"
"28.10000","2.34144","3091.83"
"28.20000","2.34990","3099.32"
"28.30000","2.35857","3108.34"
"28.40000","2.36694","3116.57"
"28.50000","2.37530","3123.9"
"28.60000","2.38347","3132.51"
"28.70000","2.39163","3139.04"
"28.80000","2.40000","3147.63"
"28.90000","2.40846","3155.87"
"29.00000","2.41703","3163.76"
"29.10000","2.42550","3172.54"
"29.20000","2.43376","3179.48"
"29.30000","2.44183","3187.68"
"29.40000","2.44979","3194.09"
"29.50000","2.45836","3202.39"
"29.60000","2.46703","3210.31"
"29.70000","2.47559","3218.49"
"29.80000","2.48386","3226.54"
"29.90000","2.49202","3232.96"
"30.00000","2.49998","3241.95"
"30.10000","2.50835","3249.41"
"30.20000","2.51682","3257.39"
"30.30000","2.52528","3265.14"
"30.40000","2.53385","3274.01"
"30.50000","2.54212","3282.42"
"30.60000","2.55038","3289.37"
"30.70000","2.55834","3298.17"
"30.80000","2.56641","3304.19"
"30.90000","2.57508","3312.18"
"31.00000","2.58344","3320.51"
"31.10000","2.59171","3327.93"
"31.20000","2.60007","3335.52"
"31.30000","2.60854","3343.07"
"31.40000","2.61650","3350.54"
"31.50000","2.62477","3358.16"
"31.60000","2.63354","3365.53"
"31.70000","2.64220","3373.99"
"31.80000","2.65047","3381.1"
"31.90000","2.65884","3388.05"
"32.00000","2.66710","3395.8"
"32.10000","2.67516","3403.39"
"32.20000","2.68343","3410.42"
"32.30000","2.69200","3418.91"
"32.40000","2.70077","3427.13"
"32.50000","2.70883","3433.68"
"32.60000","2.71669","3441.39"
"32.70000","2.72506","3449.74"
"32.80000","2.73352","3456.39"
"32.90000","2.74199","3464.05"
"33.00000","2.75036","3472.14"
"33.10000","2.75872","3479.85"
"33.20000","2.76709","3486.81"
"33.30000","2.77535","3494.45"
"33.40000","2.78342","3501.56"
"33.50000","2.79178","3508.77"
"33.60000","2.79995","3516.59"
"33.70000","2.80841","3523.86"
"33.80000","2.81708","3532.78"
"33.90000","2.82545","3539.51"
"34.00000","2.83381","3546.66"
"34.10000","2.84168","3554.02"
"34.20000","2.84984","3561.28"
"34.30000","2.85841","3569.12"
"34.40000","2.86697","3576.68"
"34.50000","2.87554","3583.88"
"34.60000","2.88381","3590.34"
"34.70000","2.89177","3598.07"
"34.80000","2.89993","3604.76"
"34.90000","2.90840","3612.56"
"35.00000","2.91687","3619.45"
"35.10000","2.92543","3626.44"
"35.20000","2.93380","3634.06"
"35.30000","2.94217","3641.45"
"35.40000","2.95033","3647.98"
"35.50000","2.95839","3655.63"
"35.60000","2.96676","3662.35"
"35.70000","2.97513","3669.8"
"35.80000","2.98329","3676.89"
"35.90000","2.99206","3684.82"
"36.00000","3.00053","3691.97"
"36.10000","3.00879","3699.42"
"36.20000","3.01655","3705.94"
"36.30000","3.02492","3713.21"
"36.40000","3.03359","3720.45"
"36.50000","3.04195","3728.71"
"36.60000","3.05022","3735.4"
"36.70000","3.05878","3742.29"
"36.80000","3.06695","3749.89"
"36.90000","3.07491","3755.52"
"37.00000","3.08338","3763.59"
"37.10000","3.09215","3771.11"
"37.20000","3.10061","3776.85"
"37.30000","3.10868","3784.53"
"37.40000","3.11684","3791.74"
"37.50000","3.12531","3798.66"
"37.60000","3.13347","3805.18"
"37.70000","3.14174","3811.92"
"37.80000","3.15041","3819.61"
"37.90000","3.15877","3826.49"
"38.00000","3.16704","3832.96"
"38.10000","3.17520","3840.73"
"38.20000","3.18337","3845.51"
"38.30000","3.19163","3853.57"
"38.40000","3.20020","3861.08"
"38.50000","3.20887","3867.59"
"38.60000","3.21733","3874.66"
"38.70000","3.22560","3882.22"
"38.80000","3.23366","3887.25"
"38.90000","3.24162","3893.85"
"39.00000","3.24989","3900.85"
"39.10000","3.25846","3907.51"
"39.20000","3.26692","3915.09"
"39.30000","3.27539","3921.89"
"39.40000","3.28376","3928.31"
"39.50000","3.29182","3934.72"
"39.60000","3.29998","3941.56"
"39.70000","3.30835","3947.78"
"39.80000","3.31682","3954.35"
"39.90000","3.32538","3961.05"
"40.00000","3.33375","3967.46"
"40.10000","3.34212","3973.55"
"40.20000","3.35018","3980.49"
"40.30000","3.35824","3985.88"
"40.40000","3.36671","3991.36"
"40.50000","3.37528","3997.92"
"40.60000","3.38364","4004.2"
"40.70000","3.39221","4010.02"
"40.80000","3.40058","4016.2"
"40.90000","3.40864","4021.74"
"41.00000","3.41650","4027.65"
"41.10000","3.42497","4034.58"
"41.20000","3.43374","4040.85"
"41.30000","3.44200","4046.55"
"41.40000","3.45027","4051.92"
"41.50000","3.45863","4058.19"
"41.60000","3.46680","4063.94"
"41.70000","3.47486","4068.85"
"41.80000","3.48343","4075.85"
"41.90000","3.49210","4082.16"
"42.00000","3.50056","4087.32"
"42.10000","3.50863","4092.93"
"42.20000","3.51669","4098.13"
"42.30000","3.52506","4103.71"
"42.40000","3.53322","4108.85"
"42.50000","3.54179","4114.66"
"42.60000","3.55046","4120.03"
"42.70000","3.55882","4125.92"
"42.80000","3.56709","4130.92"
"42.90000","3.57515","4135.83"
"43.00000","3.58342","4141.73"
"43.10000","3.59178","4145.84"
"43.20000","3.60015","4151.53"
"43.30000","3.60871","4156.62"
"43.40000","3.61728","4161.79"
"43.50000","3.62555","4166.77"
"43.60000","3.63361","4170.35"
"43.70000","3.64167","4174.76"
"43.80000","3.65004","4179.01"
"43.90000","3.65871","4184.09"
"44.00000","3.66748","4187.93"
"44.10000","3.67554","4191.53"
"44.20000","3.68350","4195.24"
"44.30000","3.69157","4198.58"
"44.40000","3.69993","4201.54"
"44.50000","3.70840","4205.9"
"44.60000","3.71697","4210.13"
"44.70000","3.72543","4212.71"
"44.80000","3.73380","4216.44"
"44.90000","3.74186","4219.38"
"45.00000","3.74993","4220.22"
"45.10000","3.75839","4223.85"
"45.20000","3.76686","4226.1"
"45.30000","3.77512","4228.47"
"45.40000","3.78359","4230.19"
"45.50000","3.79226","4232.52"
"45.60000","3.80042","4233.77"
"45.70000","3.80839","4234.92"
"45.80000","3.81655","4234.16"
"45.90000","3.82512","4234.94"
"46.00000","3.83389","4236.31"
"46.10000","3.84215","4236.14"
"46.20000","3.85042","4235.83"
"46.30000","3.85868","4234.3"
"46.40000","3.86685","4233.79"
"46.50000","3.87511","4230.39"
"46.60000","3.88348","4228.43"
"46.70000","3.89205","4227.41"
"46.80000","3.90021","4223.51"
"46.90000","3.90837","4219.18"
"47.00000","3.91674","4214.35"
"47.10000","3.92490","4208.88"
"47.20000","3.93337","4202.02"
"47.30000","3.94184","4196.23"
"47.40000","3.95030","4188.29"
"47.50000","3.95867","4180.41"
"47.60000","3.96693","4170.26"
"47.70000","3.97510","4157.42"
"47.80000","3.98336","4143.55"
"47.90000","3.99173","4126.27"
"48.00000","4.00030","4105.32"
"48.10000","4.00897","4072.49"
"48.20000","4.01733","4006.21"
"48.22600","4.01955","3682.28"
"48.23000","4.01995","3320.8"
"48.23400","4.02025","2892.93"
"48.23800","4.02076","2439.28"
"48.24000","4.02096","2213.91"