File: Data_Processing/Tensile-Data/Sequence_18.csv
General : Start date,"10/22/2024 10:04 AM"
General : End date,"10/22/2024 10:05 AM"
Specimen notes : Specimen note 1,"purple, 200, batch 6, seq 18"
Test : Rate 1,"5.00000",mm/min

Time,Extension,Load
(s),(mm),(N)
"0.00000","0.00000","1.55190"
"0.10000","0.00202","2.18499"
"0.20000","0.01330","19.68031"
"0.30000","0.02449","43.04189"
"0.40000","0.03266","58.10201"
"0.50000","0.04153","73.47085"
"0.60000","0.05030","89.65925"
"0.70000","0.05876","104.8"
"0.80000","0.06693","118.994"
"0.90000","0.07499","121.72"
"1.00000","0.08346","135.757"
"1.10000","0.09202","149.702"
"1.20000","0.10069","160.031"
"1.30000","0.10896","166.951"
"1.40000","0.11702","179.066"
"1.50000","0.12508","193.245"
"1.60000","0.13345","206.122"
"1.70000","0.14172","220.847"
"1.80000","0.15038","235.249"
"1.90000","0.15895","249.285"
"2.00000","0.16702","262.735"
"2.10000","0.17548","277.161"
"2.20000","0.18375","290.308"
"2.30000","0.19181","304.39"
"2.40000","0.19997","318.354"
"2.50000","0.20854","331.842"
"2.60000","0.21731","346.325"
"2.70000","0.22568","360.087"
"2.80000","0.23364","373.602"
"2.90000","0.24160","386.941"
"3.00000","0.25007","401.7"
"3.10000","0.25843","415.44"
"3.20000","0.26700","428.97"
"3.30000","0.27527","443.175"
"3.40000","0.28383","457.526"
"3.50000","0.29210","471.859"
"3.60000","0.29996","483.962"
"3.70000","0.30833","497.198"
"3.80000","0.31679","511.628"
"3.90000","0.32536","526.599"
"4.00000","0.33383","540.487"
"4.10000","0.34209","554.361"
"4.20000","0.35026","567.183"
"4.30000","0.35852","581.312"
"4.40000","0.36669","595.598"
"4.50000","0.37505","608.928"
"4.60000","0.38372","623.504"
"4.70000","0.39219","637.761"
"4.80000","0.40045","651.75"
"4.90000","0.40872","664.573"
"5.00000","0.41668","678.187"
"5.10000","0.42495","692.087"
"5.20000","0.43341","705.722"
"5.30000","0.44218","719.277"
"5.40000","0.45055","733.676"
"5.50000","0.45881","747.126"
"5.60000","0.46698","760.035"
"5.70000","0.47504","773.379"
"5.80000","0.48341","787.609"
"5.90000","0.49207","801.757"
"6.00000","0.50044","815.788"
"6.10000","0.50881","830.066"
"6.20000","0.51697","842.742"
"6.30000","0.52513","855.811"
"6.40000","0.53320","867.949"
"6.50000","0.54167","881.455"
"6.60000","0.55033","896.424"
"6.70000","0.55890","910.256"
"6.80000","0.56706","923.047"
"6.90000","0.57513","935.219"
"7.00000","0.58339","949.277"
"7.10000","0.59166","962.629"
"7.20000","0.60023","977.003"
"7.30000","0.60859","989.96"
"7.40000","0.61716","1003.17"
"7.50000","0.62542","1016.5"
"7.60000","0.63349","1029.37"
"7.70000","0.64145","1042.55"
"7.80000","0.65012","1055.5"
"7.90000","0.65859","1069.29"
"8.00000","0.66725","1083.16"
"8.10000","0.67562","1098.02"
"8.20000","0.68378","1110.08"
"8.30000","0.69185","1122.99"
"8.40000","0.69981","1134.88"
"8.50000","0.70838","1147.8"
"8.60000","0.71705","1161.36"
"8.70000","0.72501","1174.18"
"8.80000","0.73348","1187.29"
"8.90000","0.74204","1200.99"
"9.00000","0.75011","1213.33"
"9.10000","0.75807","1225.86"
"9.20000","0.76654","1238.86"
"9.30000","0.77520","1252.05"
"9.40000","0.78357","1264.96"
"9.50000","0.79194","1278.02"
"9.60000","0.80020","1291.73"
"9.70000","0.80857","1304.82"
"9.80000","0.81653","1317.64"
"9.90000","0.82500","1328.98"
"10.00000","0.83387","1341.44"
"10.10000","0.84233","1354.48"
"10.20000","0.85040","1367.86"
"10.30000","0.85856","1380.05"
"10.40000","0.86683","1392.51"
"10.50000","0.87509","1405.32"
"10.60000","0.88346","1417.56"
"10.70000","0.89223","1430.74"
"10.80000","0.90069","1443.63"
"10.90000","0.90855","1457.22"
"11.00000","0.91682","1469.28"
"11.10000","0.92498","1481.01"
"11.20000","0.93345","1494.56"
"11.30000","0.94171","1507.55"
"11.40000","0.95028","1519.78"
"11.50000","0.95895","1533.11"
"11.60000","0.96722","1545.12"
"11.70000","0.97538","1558.07"
"11.80000","0.98344","1570.45"
"11.90000","0.99171","1582.41"
"12.00000","1.00018","1594.1"
"12.10000","1.00864","1606.24"
"12.20000","1.01691","1618.41"
"12.30000","1.02507","1631"
"12.40000","1.03324","1643.95"
"12.50000","1.04140","1654.43"
"12.60000","1.05007","1666.51"
"12.70000","1.05864","1679.7"
"12.80000","1.06710","1692.38"
"12.90000","1.07547","1705.62"
"13.00000","1.08373","1717.79"
"13.10000","1.09190","1728.68"
"13.20000","1.10016","1739.97"
"13.30000","1.10863","1754.26"
"13.40000","1.11699","1765.68"
"13.50000","1.12536","1778.19"
"13.60000","1.13383","1790.31"
"13.70000","1.14219","1802.81"
"13.80000","1.15016","1814.86"
"13.90000","1.15832","1826.04"
"14.00000","1.16689","1838.57"
"14.10000","1.17556","1851.03"
"14.20000","1.18382","1863.26"
"14.30000","1.19209","1875.45"
"14.40000","1.20045","1887.34"
"14.50000","1.20841","1898.72"
"14.60000","1.21638","1909.94"
"14.70000","1.22495","1922.33"
"14.80000","1.23371","1934.24"
"14.90000","1.24198","1945.75"
"15.00000","1.25024","1957.65"
"15.10000","1.25881","1970.17"
"15.20000","1.26708","1980.99"
"15.30000","1.27514","1992.5"
"15.40000","1.28351","2003.73"
"15.50000","1.29197","2015.57"
"15.60000","1.30034","2027.5"
"15.70000","1.30850","2038.73"
"15.80000","1.31657","2048.84"
"15.90000","1.32493","2060.06"
"16.00000","1.33310","2072.66"
"16.10000","1.34187","2084.82"
"16.20000","1.35043","2096.48"
"16.30000","1.35880","2107.71"
"16.40000","1.36706","2118.46"
"16.50000","1.37503","2129.38"
"16.60000","1.38329","2138.44"
"16.70000","1.39186","2150.35"
"16.80000","1.40043","2162.66"
"16.90000","1.40889","2173.09"
"17.00000","1.41726","2184.98"
"17.10000","1.42522","2194.41"
"17.20000","1.43339","2205.51"
"17.30000","1.44165","2216.37"
"17.40000","1.45002","2228.56"
"17.50000","1.45858","2239.06"
"17.60000","1.46735","2250.61"
"17.70000","1.47572","2262.75"
"17.80000","1.48378","2271.85"
"17.90000","1.49175","2282.99"
"18.00000","1.50001","2294.08"
"18.10000","1.50848","2305.05"
"18.20000","1.51694","2316.14"
"18.30000","1.52511","2328.74"
"18.40000","1.53388","2338.88"
"18.50000","1.54224","2349.66"
"18.60000","1.55000","2360.29"
"18.70000","1.55817","2371.28"
"18.80000","1.56704","2383.07"
"18.90000","1.57540","2393.59"
"19.00000","1.58357","2403.83"
"19.10000","1.59214","2415.09"
"19.20000","1.60020","2425"
"19.30000","1.60826","2434.75"
"19.40000","1.61653","2445.52"
"19.50000","1.62530","2456.82"
"19.60000","1.63386","2467.93"
"19.70000","1.64203","2478.49"
"19.80000","1.65029","2489.25"
"19.90000","1.65856","2500"
"20.00000","1.66672","2507.32"
"20.10000","1.67509","2518.91"
"20.20000","1.68356","2529.87"
"20.30000","1.69202","2536.71"
"20.40000","1.70049","2547.37"
"20.50000","1.70865","2557.36"
"20.60000","1.71662","2566.71"
"20.70000","1.72498","2576.87"
"20.80000","1.73335","2587.15"
"20.90000","1.74181","2598.46"
"21.00000","1.75038","2608.8"
"21.10000","1.75875","2616.4"
"21.20000","1.76701","2626.45"
"21.30000","1.77498","2636.16"
"21.40000","1.78324","2646.84"
"21.50000","1.79201","2655.53"
"21.60000","1.80058","2665.62"
"21.70000","1.80894","2675.26"
"21.80000","1.81701","2685.06"
"21.90000","1.82507","2695.73"
"22.00000","1.83334","2705.99"
"22.10000","1.84190","2715.63"
"22.20000","1.85017","2725.82"
"22.30000","1.85863","2736.2"
"22.40000","1.86700","2746.11"
"22.50000","1.87547","2756.75"
"22.60000","1.88353","2766.01"
"22.70000","1.89170","2774.89"
"22.80000","1.90006","2786.08"
"22.90000","1.90833","2795.41"
"23.00000","1.91659","2802.6"
"23.10000","1.92556","2813.63"
"23.20000","1.93393","2823.49"
"23.30000","1.94189","2832.29"
"23.40000","1.94985","2842.23"
"23.50000","1.95832","2852.45"
"23.60000","1.96719","2862.55"
"23.70000","1.97545","2871.87"
"23.80000","1.98362","2881.74"
"23.90000","1.99198","2892.09"
"24.00000","2.00035","2902.12"
"24.10000","2.00831","2910.79"
"24.20000","2.01688","2920.21"
"24.30000","2.02565","2929.93"
"24.40000","2.03391","2940.02"
"24.50000","2.04198","2949.26"
"24.60000","2.05024","2957.95"
"24.70000","2.05861","2968.46"
"24.80000","2.06677","2976.94"
"24.90000","2.07524","2986.2"
"25.00000","2.08381","2995.31"
"25.10000","2.09197","3004.48"
"25.20000","2.10034","3013.92"
"25.30000","2.10840","3022.83"
"25.40000","2.11667","3029.67"
"25.50000","2.12493","3040.35"
"25.60000","2.13340","3051.06"
"25.70000","2.14207","3060.53"
"25.80000","2.15053","3069.71"
"25.90000","2.15880","3079.54"
"26.00000","2.16686","3087.5"
"26.10000","2.17493","3096.7"
"26.20000","2.18329","3105.47"
"26.30000","2.19216","3115.46"
"26.40000","2.20073","3124.06"
"26.50000","2.20889","3133.72"
"26.60000","2.21696","3143.16"
"26.70000","2.22502","3151.02"
"26.80000","2.23328","3160.04"
"26.90000","2.24165","3167.99"
"27.00000","2.25022","3177.24"
"27.10000","2.25848","3185.73"
"27.20000","2.26705","3195.5"
"27.30000","2.27552","3203.36"
"27.40000","2.28358","3210.71"
"27.50000","2.29174","3220.13"
"27.60000","2.30021","3228.71"
"27.70000","2.30858","3236.99"
"27.80000","2.31694","3244.86"
"27.90000","2.32561","3253.11"
"28.00000","2.33398","3260.82"
"28.10000","2.34174","3269.51"
"28.20000","2.34990","3278.36"
"28.30000","2.35847","3286.38"
"28.40000","2.36704","3294.55"
"28.50000","2.37540","3302.71"
"28.60000","2.38357","3310.26"
"28.70000","2.39183","3317.11"
"28.80000","2.40010","3326.81"
"28.90000","2.40816","3333.74"
"29.00000","2.41693","3342.29"
"29.10000","2.42550","3350.25"
"29.20000","2.43356","3350.62"
"29.30000","2.44173","3358.91"
"29.40000","2.45019","3366.41"
"29.50000","2.45866","3374.09"
"29.60000","2.46703","3383.17"
"29.70000","2.47539","3391.06"
"29.80000","2.48376","3398.4"
"29.90000","2.49212","3405.34"
"30.00000","2.50039","3413.74"
"30.10000","2.50865","3420.4"
"30.20000","2.51682","3427.48"
"30.30000","2.52488","3436"
"30.40000","2.53345","3443.41"
"30.50000","2.54202","3451.51"
"30.60000","2.55058","3452.66"
"30.70000","2.55885","3459.7"
"30.80000","2.56661","3466.38"
"30.90000","2.57477","3474.27"
"31.00000","2.58314","3481.77"
"31.10000","2.59201","3489.12"
"31.20000","2.60058","3496.3"
"31.30000","2.60874","3502.33"
"31.40000","2.61670","3509.9"
"31.50000","2.62477","3515.71"
"31.60000","2.63313","3520.49"
"31.70000","2.64190","3528.19"
"31.80000","2.65037","3535.77"
"31.90000","2.65863","3542.66"
"32.00000","2.66730","3549.29"
"32.10000","2.67537","3555.96"
"32.20000","2.68323","3561.54"
"32.30000","2.69169","3569.08"
"32.40000","2.70016","3575.11"
"32.50000","2.70843","3582.08"
"32.60000","2.71719","3589.57"
"32.70000","2.72576","3596.41"
"32.80000","2.73383","3602.34"
"32.90000","2.74159","3528.19"
"33.00000","2.74995","3542.24"
"33.10000","2.75872","3552.78"
"33.20000","2.76719","3561.54"
"33.30000","2.77545","3570.16"
"33.40000","2.78382","3579.15"
"33.50000","2.79168","3587.19"
"33.60000","2.79985","3595.23"
"33.70000","2.80831","3602.19"
"33.80000","2.81708","3610.42"
"33.90000","2.82545","3618.18"
"34.00000","2.83351","3625.78"
"34.10000","2.84168","3634.06"
"34.20000","2.84994","3642.46"
"34.30000","2.85821","3648.41"
"34.40000","2.86677","3656.7"
"34.50000","2.87534","3664.03"
"34.60000","2.88381","3671.81"
"34.70000","2.89227","3679.47"
"34.80000","2.90024","3685.95"
"34.90000","2.90830","3692.22"
"35.00000","2.91677","3698.52"
"35.10000","2.92533","3706.97"
"35.20000","2.93390","3714.09"
"35.30000","2.94237","3720.87"
"35.40000","2.95053","3727.9"
"35.50000","2.95860","3734.01"
"35.60000","2.96666","3741.49"
"35.70000","2.97492","3748.15"
"35.80000","2.98359","3754.45"
"35.90000","2.99246","3762.38"
"36.00000","3.00083","3768.78"
"36.10000","3.00869","3774.8"
"36.20000","3.01665","3781.17"
"36.30000","3.02502","3787.47"
"36.40000","3.03328","3793.13"
"36.50000","3.04185","3799.17"
"36.60000","3.05032","3805.48"
"36.70000","3.05858","3812.5"
"36.80000","3.06695","3818.29"
"36.90000","3.07511","3823.25"
"37.00000","3.08328","3828.46"
"37.10000","3.09174","3834.25"
"37.20000","3.10031","3839.15"
"37.30000","3.10858","3843.33"
"37.40000","3.11704","3849.03"
"37.50000","3.12551","3855"
"37.60000","3.13357","3860.33"
"37.70000","3.14164","3865.09"
"37.80000","3.15010","3869.59"
"37.90000","3.15877","3875.02"
"38.00000","3.16684","3879.67"
"38.10000","3.17520","3883.45"
"38.20000","3.18347","3889.62"
"38.30000","3.19163","3893.68"
"38.40000","3.19990","3897.95"
"38.50000","3.20856","3903.4"
"38.60000","3.21733","3907.83"
"38.70000","3.22560","3912.45"
"38.80000","3.23356","3916.38"
"38.90000","3.24193","3920.77"
"39.00000","3.25029","3924.87"
"39.10000","3.25856","3927.97"
"39.20000","3.26682","3931.12"
"39.30000","3.27549","3935.46"
"39.40000","3.28376","3938.99"
"39.50000","3.29202","3942.96"
"39.60000","3.30008","3947.48"
"39.70000","3.30835","3949.59"
"39.80000","3.31661","3953.52"
"39.90000","3.32518","3956.73"
"40.00000","3.33365","3959.27"
"40.10000","3.34212","3958.64"
"40.20000","3.35048","3962.29"
"40.30000","3.35865","3962.84"
"40.40000","3.36661","3963.67"
"40.50000","3.37497","3964.63"
"40.60000","3.38374","3966.88"
"40.70000","3.39241","3938"
"40.80000","3.40068","3914.1"
"40.90000","3.40874","3909.29"
"41.00000","3.41670","3907.18"
"41.10000","3.42497","3904.78"
"41.20000","3.43333","3903.9"
"41.30000","3.44200","3903.99"
"41.40000","3.45047","3902.97"
"41.50000","3.45883","3901.65"
"41.60000","3.46700","3899.88"
"41.70000","3.47516","3897.65"
"41.80000","3.48343","3895.88"
"41.90000","3.49179","3894.04"
"42.00000","3.50006","3891.01"
"42.10000","3.50853","3886.16"
"42.20000","3.51719","3882.65"
"42.30000","3.52536","3876.27"
"42.40000","3.53332","3866.37"
"42.50000","3.54159","3853.75"
"42.60000","3.55025","3832.08"
"42.70000","3.55882","3792.89"
"42.80000","3.56709","3703.23"
"42.90000","3.57545","3579.45"
"42.94800","3.57948","3304.31"
"42.95200","3.57989","2999.47"
"42.95600","3.58029","2628.78"
"42.96000","3.58069","2228.71"
"42.96200","3.58090","2028.37"