File: Data_Processing/Tensile-Data/Sequence_7.csv
General : Start date,"10/22/2024 9:28 AM"
General : End date,"10/22/2024 9:29 AM"
Specimen notes : Specimen note 1,"red, 200, batch 7, seq 7"
Test : Rate 1,"5.00000",mm/min

Time,Extension,Load
(s),(mm),(N)
"0.00000","0.00000","0.54708"
"0.10000","0.00141","1.49201"
"0.20000","0.01109","14.10676"
"0.30000","0.02419","41.85450"
"0.40000","0.03296","60.00720"
"0.50000","0.04092","74.58468"
"0.60000","0.04929","90.59365"
"0.70000","0.05806","106.472"
"0.80000","0.06673","121.936"
"0.90000","0.07519","137.191"
"1.00000","0.08356","141.849"
"1.10000","0.09202","157.672"
"1.20000","0.10019","172.188"
"1.30000","0.10835","186.289"
"1.40000","0.11662","200.605"
"1.50000","0.12529","215.758"
"1.60000","0.13375","231.478"
"1.70000","0.14192","246.412"
"1.80000","0.15038","261.122"
"1.90000","0.15855","276.144"
"2.00000","0.16671","291.315"
"2.10000","0.17498","304.885"
"2.20000","0.18365","320.695"
"2.30000","0.19211","337.002"
"2.40000","0.20048","350.672"
"2.50000","0.20854","366.155"
"2.60000","0.21681","380.464"
"2.70000","0.22497","394.346"
"2.80000","0.23334","409.404"
"2.90000","0.24201","424.447"
"3.00000","0.25037","439.384"
"3.10000","0.25894","454.364"
"3.20000","0.26700","468.852"
"3.30000","0.27507","482.533"
"3.40000","0.28343","496.757"
"3.50000","0.29170","512.151"
"3.60000","0.30037","526.457"
"3.70000","0.30883","541.018"
"3.80000","0.31720","555.804"
"3.90000","0.32526","569.797"
"4.00000","0.33343","582.07"
"4.10000","0.34159","596.414"
"4.20000","0.35006","611.004"
"4.30000","0.35852","625.96"
"4.40000","0.36689","640.561"
"4.50000","0.37536","654.875"
"4.60000","0.38342","669.448"
"4.70000","0.39168","683.153"
"4.80000","0.39995","697.408"
"4.90000","0.40842","710.826"
"5.00000","0.41688","725.032"
"5.10000","0.42555","739.292"
"5.20000","0.43392","754.357"
"5.30000","0.44198","767.861"
"5.40000","0.45004","780.844"
"5.50000","0.45861","794.957"
"5.60000","0.46688","809.633"
"5.70000","0.47524","823.951"
"5.80000","0.48371","838.473"
"5.90000","0.49207","852.807"
"6.00000","0.50014","865.555"
"6.10000","0.50830","878.974"
"6.20000","0.51667","893.423"
"6.30000","0.52544","906.901"
"6.40000","0.53380","921.341"
"6.50000","0.54207","934.519"
"6.60000","0.55053","948.151"
"6.70000","0.55860","962.679"
"6.80000","0.56656","975.953"
"6.90000","0.57493","988.797"
"7.00000","0.58370","1003"
"7.10000","0.59216","1017.3"
"7.20000","0.60023","1031.35"
"7.30000","0.60859","1044.74"
"7.40000","0.61686","1059.29"
"7.50000","0.62492","1071.74"
"7.60000","0.63349","1084.9"
"7.70000","0.64216","1099.25"
"7.80000","0.65052","1112.45"
"7.90000","0.65869","1126.38"
"8.00000","0.66675","1139.05"
"8.10000","0.67471","1152.34"
"8.20000","0.68308","1165.47"
"8.30000","0.69175","1179.72"
"8.40000","0.70042","1193.58"
"8.50000","0.70878","1207.26"
"8.60000","0.71705","1220.34"
"8.70000","0.72521","1233.58"
"8.80000","0.73327","1246.76"
"8.90000","0.74174","1259.54"
"9.00000","0.75021","1274.01"
"9.10000","0.75888","1286.95"
"9.20000","0.76714","1300.37"
"9.30000","0.77541","1312.84"
"9.40000","0.78337","1325.64"
"9.50000","0.79163","1338.66"
"9.60000","0.80010","1351.74"
"9.70000","0.80867","1365.07"
"9.80000","0.81703","1378.27"
"9.90000","0.82560","1390.67"
"10.00000","0.83376","1403.8"
"10.10000","0.84163","1416.7"
"10.20000","0.84979","1429.48"
"10.30000","0.85846","1442.53"
"10.40000","0.86683","1456.11"
"10.50000","0.87509","1469.57"
"10.60000","0.88376","1483.06"
"10.70000","0.89212","1496.78"
"10.80000","0.89989","1508.34"
"10.90000","0.90815","1521.54"
"11.00000","0.91692","1534.6"
"11.10000","0.92539","1548.42"
"11.20000","0.93355","1560.7"
"11.30000","0.94202","1573.72"
"11.40000","0.95028","1586.12"
"11.50000","0.95825","1598.45"
"11.60000","0.96661","1611.39"
"11.70000","0.97518","1623.81"
"11.80000","0.98405","1637.34"
"11.90000","0.99211","1650.91"
"12.00000","1.00018","1663.22"
"12.10000","1.00844","1676.45"
"12.20000","1.01671","1688.85"
"12.30000","1.02497","1700.67"
"12.40000","1.03354","1713.98"
"12.50000","1.04221","1727.07"
"12.60000","1.05047","1739.62"
"12.70000","1.05853","1751.41"
"12.80000","1.06660","1763.82"
"12.90000","1.07486","1775.85"
"13.00000","1.08323","1788.12"
"13.10000","1.09180","1801.19"
"13.20000","1.10026","1813.26"
"13.30000","1.10863","1825.25"
"13.40000","1.11689","1837.68"
"13.50000","1.12506","1850.01"
"13.60000","1.13342","1861.97"
"13.70000","1.14189","1874.53"
"13.80000","1.15056","1887.44"
"13.90000","1.15882","1899.67"
"14.00000","1.16709","1911.7"
"14.10000","1.17515","1924.41"
"14.20000","1.18332","1935.44"
"14.30000","1.19168","1947.91"
"14.40000","1.20005","1959.82"
"14.50000","1.20862","1971.69"
"14.60000","1.21688","1984.17"
"14.70000","1.22535","1996.46"
"14.80000","1.23351","2008.69"
"14.90000","1.24168","2020.57"
"15.00000","1.25024","2032.31"
"15.10000","1.25861","2044.9"
"15.20000","1.26677","2055.72"
"15.30000","1.27534","2069.78"
"15.40000","1.28381","2081.81"
"15.50000","1.29187","2093.05"
"15.60000","1.29994","2103.49"
"15.70000","1.30830","2115.31"
"15.80000","1.31707","2128.38"
"15.90000","1.32554","2140.23"
"16.00000","1.33360","2151.69"
"16.10000","1.34197","2163.34"
"16.20000","1.35033","2174.43"
"16.30000","1.35830","2184.77"
"16.40000","1.36666","2196.62"
"16.50000","1.37543","2209.2"
"16.60000","1.38380","2221.45"
"16.70000","1.39186","2233.78"
"16.80000","1.40012","2244.31"
"16.90000","1.40849","2255.37"
"17.00000","1.41665","2266.99"
"17.10000","1.42502","2278.66"
"17.20000","1.43379","2290.62"
"17.30000","1.44205","2301.63"
"17.40000","1.45032","2313.07"
"17.50000","1.45858","2324.91"
"17.60000","1.46655","2335.38"
"17.70000","1.47491","2345.9"
"17.80000","1.48338","2357.75"
"17.90000","1.49195","2369.91"
"18.00000","1.50051","2380.28"
"18.10000","1.50868","2392.42"
"18.20000","1.51694","2402.84"
"18.30000","1.52511","2412.86"
"18.40000","1.53337","2424.42"
"18.50000","1.54184","2435.59"
"18.60000","1.55031","2447.56"
"18.70000","1.55867","2458.66"
"18.80000","1.56694","2470.31"
"18.90000","1.57510","2480.21"
"19.00000","1.58337","2491.38"
"19.10000","1.59163","2502.46"
"19.20000","1.60010","2514.1"
"19.30000","1.60867","2526.06"
"19.40000","1.61733","2536.98"
"19.50000","1.62560","2547.94"
"19.60000","1.63366","2558.68"
"19.70000","1.64163","2568.66"
"19.80000","1.65019","2579.98"
"19.90000","1.65866","2591.02"
"20.00000","1.66713","2602.87"
"20.10000","1.67549","2612.96"
"20.20000","1.68376","2623.08"
"20.30000","1.69182","2634.17"
"20.40000","1.69988","2644.07"
"20.50000","1.70835","2654.49"
"20.60000","1.71702","2665.59"
"20.70000","1.72528","2676.69"
"20.80000","1.73355","2687.97"
"20.90000","1.74192","2698.78"
"21.00000","1.75008","2708.63"
"21.10000","1.75804","2718.76"
"21.20000","1.76671","2730.26"
"21.30000","1.77548","2740.74"
"21.40000","1.78385","2751.66"
"21.50000","1.79191","2762.16"
"21.60000","1.80038","2772.59"
"21.70000","1.80854","2783.69"
"21.80000","1.81691","2793.49"
"21.90000","1.82527","2803.35"
"22.00000","1.83384","2813.94"
"22.10000","1.84210","2824.15"
"22.20000","1.85037","2832.95"
"22.30000","1.85843","2843.71"
"22.40000","1.86660","2853.85"
"22.50000","1.87496","2865.31"
"22.60000","1.88343","2875.44"
"22.70000","1.89200","2886.28"
"22.80000","1.90046","2896.53"
"22.90000","1.90863","2906.26"
"23.00000","1.91669","2915.57"
"23.10000","1.92486","2924.04"
"23.20000","1.93322","2857.68"
"23.30000","1.94199","2874.16"
"23.40000","1.95036","2886.43"
"23.50000","1.95872","2897.88"
"23.60000","1.96679","2909.58"
"23.70000","1.97485","2920.22"
"23.80000","1.98322","2932"
"23.90000","1.99178","2943.65"
"24.00000","2.00045","2955.74"
"24.10000","2.00872","2966.44"
"24.20000","2.01728","2976.84"
"24.30000","2.02535","2987.61"
"24.40000","2.03331","2997.91"
"24.50000","2.04157","3008.78"
"24.60000","2.05024","3020.2"
"24.70000","2.05861","3031.54"
"24.80000","2.06718","3041.17"
"24.90000","2.07574","3052.52"
"25.00000","2.08391","3062.45"
"25.10000","2.09167","3072.66"
"25.20000","2.09983","3083.04"
"25.30000","2.10860","3093.68"
"25.40000","2.11717","3104.84"
"25.50000","2.12523","3114.56"
"25.60000","2.13350","3124.2"
"25.70000","2.14186","3134.29"
"25.80000","2.14993","3144.28"
"25.90000","2.15819","3153.95"
"26.00000","2.16686","3165.1"
"26.10000","2.17543","3175.23"
"26.20000","2.18359","3185.83"
"26.30000","2.19166","3195.37"
"26.40000","2.20002","3204.77"
"26.50000","2.20819","3214.34"
"26.60000","2.21655","3223.31"
"26.70000","2.22522","3233.23"
"26.80000","2.23389","3243.51"
"26.90000","2.24215","3253.04"
"27.00000","2.25032","3262.04"
"27.10000","2.25828","3271.28"
"27.20000","2.26655","3280.96"
"27.30000","2.27511","3290.81"
"27.40000","2.28398","3300.49"
"27.50000","2.29235","3310.84"
"27.60000","2.30061","3319.28"
"27.70000","2.30878","3328.3"
"27.80000","2.31664","3336.31"
"27.90000","2.32491","3344.88"
"28.00000","2.33337","3354.59"
"28.10000","2.34214","3364.48"
"28.20000","2.35041","3373.71"
"28.30000","2.35857","3382.62"
"28.40000","2.36684","3391.44"
"28.50000","2.37510","3400.36"
"28.60000","2.38337","3408.73"
"28.70000","2.39173","3417.83"
"28.80000","2.40020","3426.65"
"28.90000","2.40867","3435.81"
"29.00000","2.41713","3444.75"
"29.10000","2.42520","3453.93"
"29.20000","2.43326","3461.91"
"29.30000","2.44152","3469.86"
"29.40000","2.45029","3480.41"
"29.50000","2.45856","3488.45"
"29.60000","2.46703","3496.76"
"29.70000","2.47549","3439.62"
"29.80000","2.48356","3451.12"
"29.90000","2.49152","3461.31"
"30.00000","2.49988","3470.95"
"30.10000","2.50865","3481.74"
"30.20000","2.51702","3491.82"
"30.30000","2.52518","3501.69"
"30.40000","2.53345","3511.31"
"30.50000","2.54161","3520.67"
"30.60000","2.54988","3530.41"
"30.70000","2.55844","3540.54"
"30.80000","2.56721","3549.75"
"30.90000","2.57558","3559.1"
"31.00000","2.58374","3567.21"
"31.10000","2.59201","3550.26"
"31.20000","2.60038","3561.61"
"31.30000","2.60854","3571.76"
"31.40000","2.61680","3580.47"
"31.50000","2.62537","3590.14"
"31.60000","2.63394","3599.33"
"31.70000","2.64210","3608.28"
"31.80000","2.65007","3617.9"
"31.90000","2.65823","3625.44"
"32.00000","2.66629","3634.92"
"32.10000","2.67496","3644.93"
"32.20000","2.68353","3655.05"
"32.30000","2.69210","3664.06"
"32.40000","2.70056","3672.75"
"32.50000","2.70873","3682.01"
"32.60000","2.71669","3690.21"
"32.70000","2.72506","3699.16"
"32.80000","2.73372","3708.4"
"32.90000","2.74239","3717.11"
"33.00000","2.75076","3725.24"
"33.10000","2.75882","3733.66"
"33.20000","2.76668","3742.34"
"33.30000","2.77475","3748.92"
"33.40000","2.78321","3758.11"
"33.50000","2.79168","3766.59"
"33.60000","2.80025","3775.06"
"33.70000","2.80882","3783.61"
"33.80000","2.81708","3789.97"
"33.90000","2.82504","3798.18"
"34.00000","2.83331","3806"
"34.10000","2.84208","3815.04"
"34.20000","2.85024","3822.65"
"34.30000","2.85861","3829.48"
"34.40000","2.86707","3837.43"
"34.50000","2.87544","3844.54"
"34.60000","2.88320","3850.8"
"34.70000","2.89137","3857.9"
"34.80000","2.90003","3864.78"
"34.90000","2.90880","3873.68"
"35.00000","2.91707","3881.3"
"35.10000","2.92523","3887.61"
"35.20000","2.93370","3895"
"35.30000","2.94176","3901.03"
"35.40000","2.94993","3908.87"
"35.50000","2.95860","3916.18"
"35.60000","2.96726","3923.86"
"35.70000","2.97563","3930.83"
"35.80000","2.98359","3936.78"
"35.90000","2.99186","3942.92"
"36.00000","3.00002","3949.32"
"36.10000","3.00829","3955.45"
"36.20000","3.01695","3962.46"
"36.30000","3.02542","3969.13"
"36.40000","3.03369","3975.26"
"36.50000","3.04195","3981.46"
"36.60000","3.04981","3986.79"
"36.70000","3.05808","3992.35"
"36.80000","3.06655","3997.71"
"36.90000","3.07511","4003.37"
"37.00000","3.08388","4008.54"
"37.10000","3.09215","4013.85"
"37.20000","3.10021","4017.5"
"37.30000","3.10817","4022.98"
"37.40000","3.11644","4027.09"
"37.50000","3.12501","4032.43"
"37.60000","3.13377","4036.45"
"37.70000","3.14224","4041.32"
"37.80000","3.15041","4044.68"
"37.90000","3.15847","4046.61"
"38.00000","3.16684","4049.16"
"38.10000","3.17530","4048.29"
"38.20000","3.18347","4046.51"
"38.30000","3.19183","4041.72"
"38.40000","3.20050","4035.35"
"38.50000","3.20907","4022.86"
"38.60000","3.21723","3994.62"
"38.70000","3.22499","3841.36"
"38.71200","3.22600","3584.96"
"38.71600","3.22630","3250.75"
"38.72000","3.22671","2848.63"
"38.72400","3.22721","2413.4"
"38.72600","3.22741","2195.5"