File: Data_Processing/Tensile-Data/Sequence_46.csv
General : Start date,"10/29/2024 10:57 AM"
General : End date,"10/29/2024 10:58 AM"
Specimen notes : Specimen note 1,"Day 2, green, 230, batch 3, seq 46"
Test : Rate 1,"5.00000",mm/min

Time,Extension,Load
(s),(mm),(N)
"0.00000","0.00000","-0.31089"
"0.10000","0.00252","1.21385"
"0.20000","0.00716","-0.03430"
"0.30000","0.01411","7.46716"
"0.40000","0.02913","34.44313"
"0.50000","0.03941","55.56147"
"0.60000","0.04828","70.73913"
"0.70000","0.05786","85.07293"
"0.80000","0.06652","100.133"
"0.90000","0.07479","112.966"
"1.00000","0.08295","126.507"
"1.10000","0.09152","139.297"
"1.20000","0.10029","153.446"
"1.30000","0.10876","166.59"
"1.40000","0.11682","179.865"
"1.50000","0.12508","192.591"
"1.60000","0.13325","205.831"
"1.70000","0.14162","219.206"
"1.80000","0.14998","232.629"
"1.90000","0.15865","246.427"
"2.00000","0.16712","259.405"
"2.10000","0.17518","272.323"
"2.20000","0.18365","284.999"
"2.30000","0.19171","298.142"
"2.40000","0.19987","310.703"
"2.50000","0.20834","323.882"
"2.60000","0.21701","337.13"
"2.70000","0.22558","350.109"
"2.80000","0.23374","363.132"
"2.90000","0.24180","375.786"
"3.00000","0.24987","387.754"
"3.10000","0.25823","400.8"
"3.20000","0.26690","413.771"
"3.30000","0.27537","425.966"
"3.40000","0.28383","439.234"
"3.50000","0.29210","451.809"
"3.60000","0.29996","463.678"
"3.70000","0.30823","475.459"
"3.80000","0.31669","487.085"
"3.90000","0.32516","500.731"
"4.00000","0.33353","512.539"
"4.10000","0.34189","525.59"
"4.20000","0.34996","537.548"
"4.30000","0.35802","548.717"
"4.40000","0.36649","560.444"
"4.50000","0.37515","574.111"
"4.60000","0.38362","586.794"
"4.70000","0.39199","598.901"
"4.80000","0.40015","610.441"
"4.90000","0.40862","622.215"
"5.00000","0.41678","634.207"
"5.10000","0.42495","645.433"
"5.20000","0.43341","656.676"
"5.30000","0.44208","668.776"
"5.40000","0.45055","680.382"
"5.50000","0.45871","690.674"
"5.60000","0.46708","702.077"
"5.70000","0.47504","712.604"
"5.80000","0.48320","723.229"
"5.90000","0.49177","734.519"
"6.00000","0.50034","745.627"
"6.10000","0.50871","756.718"
"6.20000","0.51687","768.361"
"6.30000","0.52493","778.101"
"6.40000","0.53320","788.382"
"6.50000","0.54146","798.888"
"6.60000","0.55003","809.927"
"6.70000","0.55860","821.046"
"6.80000","0.56696","831.887"
"6.90000","0.57513","842.453"
"7.00000","0.58339","851.492"
"7.10000","0.59156","861.761"
"7.20000","0.59992","871.622"
"7.30000","0.60849","882.099"
"7.40000","0.61696","891.954"
"7.50000","0.62522","902.295"
"7.60000","0.63359","911.123"
"7.70000","0.64185","921.591"
"7.80000","0.65012","930.608"
"7.90000","0.65828","940.476"
"8.00000","0.66685","950.518"
"8.10000","0.67522","960.093"
"8.20000","0.68368","970.288"
"8.30000","0.69195","980.6"
"8.40000","0.69991","988.543"
"8.50000","0.70818","998.918"
"8.60000","0.71684","1008.97"
"8.70000","0.72521","1018.3"
"8.80000","0.73327","1027.88"
"8.90000","0.74194","1037.65"
"9.00000","0.75021","1046.35"
"9.10000","0.75827","1054.4"
"9.20000","0.76643","1064.61"
"9.30000","0.77490","1072.67"
"9.40000","0.78337","1081.79"
"9.50000","0.79173","1088.95"
"9.60000","0.80010","1097.09"
"9.70000","0.80826","1104.59"
"9.80000","0.81623","1112.83"
"9.90000","0.82459","1120.1"
"10.00000","0.83346","1130.66"
"10.10000","0.84203","1137.39"
"10.20000","0.84999","1145.97"
"10.30000","0.85826","1153.58"
"10.40000","0.86693","1161.65"
"10.50000","0.87529","1170.32"
"10.60000","0.88336","1177.9"
"10.70000","0.89192","1186.15"
"10.80000","0.90039","1195.63"
"10.90000","0.90886","1203.24"
"11.00000","0.91712","1211.16"
"11.10000","0.92498","1218.48"
"11.20000","0.93325","1226.22"
"11.30000","0.94161","1234.41"
"11.40000","0.95018","1242.31"
"11.50000","0.95865","1250.98"
"11.60000","0.96711","1258.23"
"11.70000","0.97538","1265.94"
"11.80000","0.98334","1273.99"
"11.90000","0.99141","1281.87"
"12.00000","0.99977","1289.72"
"12.10000","1.00864","1297.89"
"12.20000","1.01711","1306.64"
"12.30000","1.02527","1313.91"
"12.40000","1.03344","1321.74"
"12.50000","1.04140","1330.06"
"12.60000","1.04966","1337.15"
"12.70000","1.05823","1344.64"
"12.80000","1.06680","1352.81"
"12.90000","1.07527","1359.34"
"13.00000","1.08363","1367.09"
"13.10000","1.09180","1374.99"
"13.20000","1.09986","1381.16"
"13.30000","1.10813","1388.37"
"13.40000","1.11659","1395.82"
"13.50000","1.12516","1404.35"
"13.60000","1.13373","1411.66"
"13.70000","1.14219","1418.77"
"13.80000","1.15016","1426.72"
"13.90000","1.15812","1434.26"
"14.00000","1.16659","1441.58"
"14.10000","1.17546","1450.26"
"14.20000","1.18372","1457.33"
"14.30000","1.19209","1463.3"
"14.40000","1.20035","1470.37"
"14.50000","1.20831","1477.87"
"14.60000","1.21638","1486.62"
"14.70000","1.22495","1493.41"
"14.80000","1.23371","1501.19"
"14.90000","1.24208","1508.21"
"15.00000","1.25014","1515.29"
"15.10000","1.25841","1522.77"
"15.20000","1.26647","1530.33"
"15.30000","1.27474","1537.39"
"15.40000","1.28320","1545.65"
"15.50000","1.29167","1553.22"
"15.60000","1.30014","1560.03"
"15.70000","1.30840","1567.5"
"15.80000","1.31667","1575.5"
"15.90000","1.32483","1582.18"
"16.00000","1.33330","1591.37"
"16.10000","1.34166","1597.45"
"16.20000","1.35033","1606.42"
"16.30000","1.35880","1613.8"
"16.40000","1.36706","1620.01"
"16.50000","1.37533","1627.63"
"16.60000","1.38319","1634.97"
"16.70000","1.39146","1641.6"
"16.80000","1.40002","1650.29"
"16.90000","1.40899","1656.88"
"17.00000","1.41716","1664.55"
"17.10000","1.42512","1672.19"
"17.20000","1.43329","1679.8"
"17.30000","1.44145","1686.6"
"17.40000","1.44992","1693.79"
"17.50000","1.45858","1701.34"
"17.60000","1.46705","1709.6"
"17.70000","1.47532","1717.59"
"17.80000","1.48358","1724.13"
"17.90000","1.49154","1732.13"
"18.00000","1.49981","1737.53"
"18.10000","1.50838","1746.26"
"18.20000","1.51684","1754.2"
"18.30000","1.52501","1761.33"
"18.40000","1.53368","1769.16"
"18.50000","1.54214","1777.1"
"18.60000","1.54990","1783.64"
"18.70000","1.55807","1790.55"
"18.80000","1.56653","1798.25"
"18.90000","1.57530","1806.27"
"19.00000","1.58367","1813.33"
"19.10000","1.59204","1820.95"
"19.20000","1.60020","1828.88"
"19.30000","1.60826","1836.75"
"19.40000","1.61653","1842.62"
"19.50000","1.62499","1851.94"
"19.60000","1.63386","1859.03"
"19.70000","1.64203","1866.08"
"19.80000","1.65009","1872.83"
"19.90000","1.65856","1880.9"
"20.00000","1.66682","1888.12"
"20.10000","1.67509","1895"
"20.20000","1.68346","1902.81"
"20.30000","1.69192","1909.72"
"20.40000","1.70029","1917.52"
"20.50000","1.70845","1924.38"
"20.60000","1.71662","1931.78"
"20.70000","1.72488","1938.51"
"20.80000","1.73315","1946.55"
"20.90000","1.74161","1954.25"
"21.00000","1.75028","1961.74"
"21.10000","1.75875","1968.84"
"21.20000","1.76701","1977.23"
"21.30000","1.77508","1984.22"
"21.40000","1.78314","1990.17"
"21.50000","1.79171","1999.56"
"21.60000","1.80038","2006.53"
"21.70000","1.80884","2013.95"
"21.80000","1.81701","2021.15"
"21.90000","1.82507","2029.09"
"22.00000","1.83334","2035.9"
"22.10000","1.84160","2044.06"
"22.20000","1.84997","2051.58"
"22.30000","1.85853","2058.44"
"22.40000","1.86700","2066.5"
"22.50000","1.87547","2073.36"
"22.60000","1.88363","2080.97"
"22.70000","1.89170","2087.93"
"22.80000","1.89986","2095.4"
"22.90000","1.90823","2102.94"
"23.00000","1.91669","2110.1"
"23.10000","1.92526","2117.15"
"23.20000","1.93383","2124.98"
"23.30000","1.94199","2133.09"
"23.40000","1.94995","2140.08"
"23.50000","1.95802","2146.88"
"23.60000","1.96669","2155.26"
"23.70000","1.97505","2162.41"
"23.80000","1.98342","2169.92"
"23.90000","1.99198","2177.35"
"24.00000","2.00015","2185.46"
"24.10000","2.00811","2192.35"
"24.20000","2.01648","2198.46"
"24.30000","2.02525","2206.89"
"24.40000","2.03371","2213.83"
"24.50000","2.04188","2222.15"
"24.60000","2.05024","2229.49"
"24.70000","2.05861","2237.15"
"24.80000","2.06677","2243.81"
"24.90000","2.07514","2251.65"
"25.00000","2.08381","2258.86"
"25.10000","2.09207","2266.58"
"25.20000","2.10034","2274.37"
"25.30000","2.10860","2281.78"
"25.40000","2.11657","2287.83"
"25.50000","2.12473","2294.97"
"25.60000","2.13299","2302.32"
"25.70000","2.14176","2310.12"
"25.80000","2.15033","2317.07"
"25.90000","2.15870","2324.75"
"26.00000","2.16686","2331.28"
"26.10000","2.17482","2336.85"
"26.20000","2.18289","2344.78"
"26.30000","2.19156","2352.39"
"26.40000","2.20012","2361.18"
"26.50000","2.20859","2367.19"
"26.60000","2.21696","2375.13"
"26.70000","2.22502","2382.26"
"26.80000","2.23318","2390.03"
"26.90000","2.24165","2397.52"
"27.00000","2.25022","2405.43"
"27.10000","2.25879","2412.49"
"27.20000","2.26695","2420.07"
"27.30000","2.27532","2427.41"
"27.40000","2.28358","2435.17"
"27.50000","2.29164","2442.3"
"27.60000","2.30011","2450.3"
"27.70000","2.30858","2458.36"
"27.80000","2.31694","2465.08"
"27.90000","2.32531","2472.17"
"28.00000","2.33388","2480.05"
"28.10000","2.34184","2487.34"
"28.20000","2.34970","2495.02"
"28.30000","2.35807","2502.4"
"28.40000","2.36694","2509.4"
"28.50000","2.37520","2517.32"
"28.60000","2.38357","2524.9"
"28.70000","2.39193","2532.03"
"28.80000","2.39980","2539.01"
"28.90000","2.40806","2545.77"
"29.00000","2.41653","2552.43"
"29.10000","2.42530","2560.09"
"29.20000","2.43376","2567.49"
"29.30000","2.44183","2573.82"
"29.40000","2.45009","2582.42"
"29.50000","2.45836","2590.19"
"29.60000","2.46672","2597.28"
"29.70000","2.47509","2604.18"
"29.80000","2.48356","2611.29"
"29.90000","2.49192","2619.14"
"30.00000","2.50029","2626.05"
"30.10000","2.50845","2633.06"
"30.20000","2.51672","2640.71"
"30.30000","2.52498","2647.72"
"30.40000","2.53345","2656.42"
"30.50000","2.54202","2664.02"
"30.60000","2.55028","2670.86"
"30.70000","2.55844","2677.93"
"30.80000","2.56651","2685.55"
"30.90000","2.57467","2691.78"
"31.00000","2.58314","2699.28"
"31.10000","2.59181","2707.77"
"31.20000","2.60058","2715.15"
"31.30000","2.60874","2722.36"
"31.40000","2.61680","2728.73"
"31.50000","2.62487","2736.77"
"31.60000","2.63313","2743.64"
"31.70000","2.64150","2750.91"
"31.80000","2.65007","2759.16"
"31.90000","2.65853","2765.92"
"32.00000","2.66680","2773.01"
"32.10000","2.67547","2781.2"
"32.20000","2.68353","2788.73"
"32.30000","2.69179","2795.16"
"32.40000","2.70016","2802.2"
"32.50000","2.70853","2810.44"
"32.60000","2.71689","2817.43"
"32.70000","2.72556","2825.7"
"32.80000","2.73393","2831.92"
"32.90000","2.74169","2838.82"
"33.00000","2.74995","2846.58"
"33.10000","2.75852","2853.95"
"33.20000","2.76719","2861.9"
"33.30000","2.77525","2868.13"
"33.40000","2.78332","2875.29"
"33.50000","2.79188","2883.3"
"33.60000","2.80015","2890.7"
"33.70000","2.80821","2897.46"
"33.80000","2.81688","2905.08"
"33.90000","2.82535","2912.53"
"34.00000","2.83361","2919.75"
"34.10000","2.84157","2927"
"34.20000","2.84994","2934.43"
"34.30000","2.85821","2940.57"
"34.40000","2.86647","2947.3"
"34.50000","2.87514","2955.47"
"34.60000","2.88340","2962.59"
"34.70000","2.89177","2969.81"
"34.80000","2.90014","2977.52"
"34.90000","2.90830","2984.31"
"35.00000","2.91677","2990.83"
"35.10000","2.92493","2998.51"
"35.20000","2.93350","3005.12"
"35.30000","2.94196","3013.16"
"35.40000","2.95043","3019.58"
"35.50000","2.95860","3026.92"
"35.60000","2.96656","3034.49"
"35.70000","2.97472","3041.15"
"35.80000","2.98339","3048.94"
"35.90000","2.99206","3056.39"
"36.00000","3.00053","3063.93"
"36.10000","3.00879","3070.53"
"36.20000","3.01685","3077.69"
"36.30000","3.02502","3085.52"
"36.40000","3.03328","3092.13"
"36.50000","3.04175","3099.47"
"36.60000","3.05012","3106.1"
"36.70000","3.05878","3113.68"
"36.80000","3.06715","3120.83"
"36.90000","3.07511","3127.09"
"37.00000","3.08298","3134.48"
"37.10000","3.09144","3140.88"
"37.20000","3.10001","3148.97"
"37.30000","3.10807","3155.5"
"37.40000","3.11644","3162.17"
"37.50000","3.12521","3169.96"
"37.60000","3.13337","3177.28"
"37.70000","3.14133","3182.97"
"37.80000","3.14960","3189.84"
"37.90000","3.15847","3198.03"
"38.00000","3.16704","3204.97"
"38.10000","3.17530","3211.6"
"38.20000","3.18377","3219.25"
"38.30000","3.19193","3225.63"
"38.40000","3.19979","3231.6"
"38.50000","3.20816","3239.07"
"38.60000","3.21693","3246.97"
"38.70000","3.22550","3254.07"
"38.80000","3.23356","3260.24"
"38.90000","3.24172","3266.62"
"39.00000","3.24999","3274.22"
"39.10000","3.25836","3281"
"39.20000","3.26682","3288.14"
"39.30000","3.27539","3294.3"
"39.40000","3.28376","3301.34"
"39.50000","3.29202","3308.56"
"39.60000","3.30008","3315.43"
"39.70000","3.30825","3320.97"
"39.80000","3.31651","3328.08"
"39.90000","3.32478","3335.75"
"40.00000","3.33345","3343.38"
"40.10000","3.34212","3349.41"
"40.20000","3.35038","3355.51"
"40.30000","3.35854","3363.13"
"40.40000","3.36641","3368.56"
"40.50000","3.37477","3375.19"
"40.60000","3.38334","3382.21"
"40.70000","3.39201","3389.22"
"40.80000","3.40037","3396.71"
"40.90000","3.40854","3402.53"
"41.00000","3.41650","3409.14"
"41.10000","3.42487","3415.69"
"41.20000","3.43333","3422.69"
"41.30000","3.44190","3429.72"
"41.40000","3.45037","3436.89"
"41.50000","3.45883","3443.39"
"41.60000","3.46700","3448.79"
"41.70000","3.47496","3455.82"
"41.80000","3.48323","3462.62"
"41.90000","3.49169","3469.25"
"42.00000","3.50006","3475.09"
"42.10000","3.50842","3482.81"
"42.20000","3.51709","3489.09"
"42.30000","3.52556","3496.36"
"42.40000","3.53332","3502.57"
"42.50000","3.54138","3507.69"
"42.60000","3.54995","3515.41"
"42.70000","3.55862","3522.1"
"42.80000","3.56699","3528.89"
"42.90000","3.57525","3534.55"
"43.00000","3.58362","3540.54"
"43.10000","3.59158","3547"
"43.20000","3.59974","3553.15"
"43.30000","3.60851","3559.69"
"43.40000","3.61728","3565.65"
"43.50000","3.62535","3572.35"
"43.60000","3.63341","3578.48"
"43.70000","3.64188","3584.99"
"43.80000","3.65014","3590.94"
"43.90000","3.65841","3597.13"
"44.00000","3.66677","3602.72"
"44.10000","3.67534","3609.52"
"44.20000","3.68370","3615.14"
"44.30000","3.69187","3620.94"
"44.40000","3.69993","3627.07"
"44.50000","3.70830","3632.6"
"44.60000","3.71656","3638.2"
"44.70000","3.72523","3645.49"
"44.80000","3.73380","3650.53"
"44.90000","3.74217","3657.29"
"45.00000","3.75023","3663.35"
"45.10000","3.75829","3668.03"
"45.20000","3.76636","3673.73"
"45.30000","3.77482","3679.91"
"45.40000","3.78369","3685.94"
"45.50000","3.79236","3692.1"
"45.60000","3.80052","3698"
"45.70000","3.80839","3702.64"
"45.80000","3.81665","3708.9"
"45.90000","3.82512","3714.18"
"46.00000","3.83338","3719.59"
"46.10000","3.84185","3725.51"
"46.20000","3.85022","3730.31"
"46.30000","3.85858","3735.55"
"46.40000","3.86705","3741.73"
"46.50000","3.87491","3746.28"
"46.60000","3.88318","3750.88"
"46.70000","3.89174","3756.15"
"46.80000","3.90001","3761.05"
"46.90000","3.90847","3766.11"
"47.00000","3.91704","3770.62"
"47.10000","3.92531","3775.94"
"47.20000","3.93327","3779.15"
"47.30000","3.94143","3783.52"
"47.40000","3.95010","3789.72"
"47.50000","3.95877","3794.03"
"47.60000","3.96693","3797.16"
"47.70000","3.97510","3801.04"
"47.80000","3.98346","3805.06"
"47.90000","3.99163","3809.17"
"48.00000","3.99979","3812.27"
"48.10000","4.00846","3816.5"
"48.20000","4.01713","3820.47"
"48.30000","4.02519","3824.58"
"48.40000","4.03336","3826.45"
"48.50000","4.04172","3829.78"
"48.60000","4.04999","3832.45"
"48.70000","4.05825","3835.23"
"48.80000","4.06682","3837.97"
"48.90000","4.07529","3841.23"
"49.00000","4.08365","3842.84"
"49.10000","4.09192","3844.71"
"49.20000","4.10008","3845.88"
"49.30000","4.10825","3846.52"
"49.40000","4.11661","3848.46"
"49.50000","4.12518","3849.88"
"49.60000","4.13365","3848.97"
"49.70000","4.14201","3849.14"
"49.80000","4.15018","3848.99"
"49.90000","4.15834","3847.55"
"50.00000","4.16651","3846.02"
"50.10000","4.17477","3844.15"
"50.20000","4.18374","3841.56"
"50.30000","4.19241","3839.57"
"50.40000","4.20037","3834.45"
"50.50000","4.20834","3828.9"
"50.60000","4.21650","3822.57"
"50.70000","4.22487","3814.8"
"50.80000","4.23333","3806.92"
"50.90000","4.24190","3797.2"
"51.00000","4.25037","3784.87"
"51.10000","4.25863","3768.41"
"51.20000","4.26680","3748.66"
"51.30000","4.27476","3722.61"
"51.40000","4.28323","3684.28"
"51.50000","4.29169","3605.68"
"51.51800","4.29310","3257.98"
"51.52200","4.29351","2914.58"
"51.52600","4.29391","2518.91"
"51.53000","4.29441","2104.36"