File: Data_Processing/Tensile-Data/Sequence_39.csv
General : Start date,"10/29/2024 10:42 AM"
General : End date,"10/29/2024 10:43 AM"
Specimen notes : Specimen note 1,"Day 2, purple, 230, batch 3, seq 39"
Test : Rate 1,"5.00000",mm/min

Time,Extension,Load
(s),(mm),(N)
"0.00000","-0.00010","0.25607"
"0.10000","0.00131","0.36733"
"0.20000","0.00776","0.56399"
"0.30000","0.01683","0.61022"
"0.40000","0.02338","6.16228"
"0.50000","0.03296","19.39523"
"0.60000","0.04606","43.81612"
"0.70000","0.05624","63.48965"
"0.80000","0.06542","79.24241"
"0.90000","0.07418","92.25284"
"1.00000","0.08326","107.16"
"1.10000","0.09162","120.134"
"1.20000","0.09979","133.284"
"1.30000","0.10835","147.335"
"1.40000","0.11692","160.194"
"1.50000","0.12549","174.648"
"1.60000","0.13375","187.037"
"1.70000","0.14172","201.114"
"1.80000","0.14988","214.405"
"1.90000","0.15835","227.108"
"2.00000","0.16691","241.648"
"2.10000","0.17538","254.549"
"2.20000","0.18375","268.998"
"2.30000","0.19201","281.465"
"2.40000","0.19997","293.951"
"2.50000","0.20824","306.526"
"2.60000","0.21661","320.033"
"2.70000","0.22507","333.144"
"2.80000","0.23334","346.126"
"2.90000","0.24170","359.117"
"3.00000","0.25007","371.817"
"3.10000","0.25823","384.752"
"3.20000","0.26650","396.553"
"3.30000","0.27497","409.39"
"3.40000","0.28343","422.312"
"3.50000","0.29190","435.603"
"3.60000","0.29996","446.731"
"3.70000","0.30853","459.758"
"3.80000","0.31679","472.091"
"3.90000","0.32486","484.104"
"4.00000","0.33332","496.882"
"4.10000","0.34199","509.166"
"4.20000","0.35046","521.749"
"4.30000","0.35862","532.87"
"4.40000","0.36699","544.842"
"4.50000","0.37505","556.131"
"4.60000","0.38322","567.244"
"4.70000","0.39168","579.268"
"4.80000","0.40035","591.846"
"4.90000","0.40862","603.322"
"5.00000","0.41678","614.731"
"5.10000","0.42505","625.151"
"5.20000","0.43321","636.47"
"5.30000","0.44148","647.277"
"5.40000","0.45004","658.385"
"5.50000","0.45851","669.957"
"5.60000","0.46698","681.659"
"5.70000","0.47514","691.036"
"5.80000","0.48331","701.052"
"5.90000","0.49157","711.805"
"6.00000","0.49973","721.588"
"6.10000","0.50840","732.905"
"6.20000","0.51687","743.92"
"6.30000","0.52513","754.008"
"6.40000","0.53350","763.86"
"6.50000","0.54177","775.447"
"6.60000","0.54993","784.343"
"6.70000","0.55820","794.399"
"6.80000","0.56696","805.511"
"6.90000","0.57543","815.371"
"7.00000","0.58370","826.887"
"7.10000","0.59186","836.568"
"7.20000","0.59992","846.037"
"7.30000","0.60809","855.809"
"7.40000","0.61666","865.939"
"7.50000","0.62492","875.961"
"7.60000","0.63319","886.18"
"7.70000","0.64195","894.465"
"7.80000","0.65032","901.846"
"7.90000","0.65818","909.439"
"8.00000","0.66635","916.954"
"8.10000","0.67481","925.272"
"8.20000","0.68338","934.704"
"8.30000","0.69175","942.14"
"8.40000","0.70011","951.131"
"8.50000","0.70828","958.723"
"8.60000","0.71614","966.59"
"8.70000","0.72440","975.252"
"8.80000","0.73348","985.012"
"8.90000","0.74204","994.371"
"9.00000","0.75001","1002.91"
"9.10000","0.75817","1010.36"
"9.20000","0.76694","1019.63"
"9.30000","0.77520","1028.23"
"9.40000","0.78337","1036.4"
"9.50000","0.79183","1045.04"
"9.60000","0.80040","1053.72"
"9.70000","0.80867","1061.83"
"9.80000","0.81693","1070.19"
"9.90000","0.82490","1077.98"
"10.00000","0.83326","1085.86"
"10.10000","0.84163","1094.52"
"10.20000","0.85030","1103.67"
"10.30000","0.85866","1111.9"
"10.40000","0.86703","1120"
"10.50000","0.87519","1127.97"
"10.60000","0.88336","1136.67"
"10.70000","0.89142","1144.61"
"10.80000","0.89968","1152.66"
"10.90000","0.90855","1161.7"
"11.00000","0.91712","1170.82"
"11.10000","0.92529","1177.47"
"11.20000","0.93325","1186.19"
"11.30000","0.94111","1194.1"
"11.40000","0.94948","1202.77"
"11.50000","0.95804","1211.05"
"11.60000","0.96681","1220.04"
"11.70000","0.97528","1228.88"
"11.80000","0.98354","1236.56"
"11.90000","0.99171","1244.73"
"12.00000","0.99977","1252.3"
"12.10000","1.00814","1260.83"
"12.20000","1.01660","1270.1"
"12.30000","1.02507","1278.07"
"12.40000","1.03364","1286.25"
"12.50000","1.04221","1295.86"
"12.60000","1.05027","1302.84"
"12.70000","1.05813","1311.37"
"12.80000","1.06640","1319.68"
"12.90000","1.07517","1327.96"
"13.00000","1.08373","1335.71"
"13.10000","1.09210","1342.83"
"13.20000","1.10036","1350.64"
"13.30000","1.10843","1359.63"
"13.40000","1.11639","1367.6"
"13.50000","1.12486","1375.56"
"13.60000","1.13363","1383.43"
"13.70000","1.14209","1391.57"
"13.80000","1.15016","1399.16"
"13.90000","1.15832","1407.2"
"14.00000","1.16638","1414.13"
"14.10000","1.17455","1421.73"
"14.20000","1.18301","1429.47"
"14.30000","1.19168","1437.3"
"14.40000","1.20005","1443.83"
"14.50000","1.20821","1451.82"
"14.60000","1.21648","1458.94"
"14.70000","1.22474","1465.34"
"14.80000","1.23331","1473.54"
"14.90000","1.24158","1480.6"
"15.00000","1.25024","1489.09"
"15.10000","1.25871","1496.97"
"15.20000","1.26698","1503.47"
"15.30000","1.27524","1511.5"
"15.40000","1.28320","1518.24"
"15.50000","1.29147","1526.29"
"15.60000","1.29983","1533.42"
"15.70000","1.30881","1541.83"
"15.80000","1.31707","1549.02"
"15.90000","1.32503","1556.32"
"16.00000","1.33310","1563.75"
"16.10000","1.34136","1571.32"
"16.20000","1.34983","1579.45"
"16.30000","1.35850","1586.36"
"16.40000","1.36696","1595.39"
"16.50000","1.37533","1602.63"
"16.60000","1.38359","1610.07"
"16.70000","1.39156","1617.31"
"16.80000","1.39972","1624.89"
"16.90000","1.40829","1632.66"
"17.00000","1.41665","1640.61"
"17.10000","1.42472","1646.9"
"17.20000","1.43339","1654.81"
"17.30000","1.44205","1663.02"
"17.40000","1.45002","1670.03"
"17.50000","1.45798","1677.01"
"17.60000","1.46645","1685.21"
"17.70000","1.47522","1692.68"
"17.80000","1.48368","1700.68"
"17.90000","1.49195","1707.58"
"18.00000","1.50011","1715.38"
"18.10000","1.50838","1723.43"
"18.20000","1.51654","1730.81"
"18.30000","1.52491","1737.07"
"18.40000","1.53388","1745.41"
"18.50000","1.54224","1753.19"
"18.60000","1.55011","1760.71"
"18.70000","1.55857","1767.8"
"18.80000","1.56684","1774.77"
"18.90000","1.57510","1781.79"
"19.00000","1.58327","1789.9"
"19.10000","1.59183","1798.07"
"19.20000","1.60020","1806.92"
"19.30000","1.60846","1813.61"
"19.40000","1.61653","1820.16"
"19.50000","1.62469","1827.53"
"19.60000","1.63316","1836.09"
"19.70000","1.64163","1844.07"
"19.80000","1.65029","1853.14"
"19.90000","1.65876","1860.09"
"20.00000","1.66703","1868.49"
"20.10000","1.67509","1875.52"
"20.20000","1.68305","1883.03"
"20.30000","1.69142","1890.89"
"20.40000","1.70019","1899.88"
"20.50000","1.70875","1906.9"
"20.60000","1.71692","1913.32"
"20.70000","1.72518","1920.66"
"20.80000","1.73325","1927.68"
"20.90000","1.74151","1934.92"
"21.00000","1.74978","1943.13"
"21.10000","1.75845","1951.09"
"21.20000","1.76701","1959.21"
"21.30000","1.77548","1966.16"
"21.40000","1.78354","1973.44"
"21.50000","1.79171","1981.59"
"21.60000","1.79987","1988.78"
"21.70000","1.80814","1996.85"
"21.80000","1.81670","2004.47"
"21.90000","1.82527","2012.57"
"22.00000","1.83374","2020.94"
"22.10000","1.84200","2028.08"
"22.20000","1.84987","2035.64"
"22.30000","1.85803","2043.48"
"22.40000","1.86660","2050.41"
"22.50000","1.87496","2058.7"
"22.60000","1.88333","2066.29"
"22.70000","1.89190","2074.44"
"22.80000","1.90016","2082.7"
"22.90000","1.90802","2089.27"
"23.00000","1.91629","2097.37"
"23.10000","1.92506","2105.72"
"23.20000","1.93363","2113.15"
"23.30000","1.94179","2120.2"
"23.40000","1.95005","2127.62"
"23.50000","1.95842","2135.42"
"23.60000","1.96669","2143.05"
"23.70000","1.97495","2151.78"
"23.80000","1.98372","2159.65"
"23.90000","1.99209","2167.85"
"24.00000","2.00035","2174.77"
"24.10000","2.00872","2182.05"
"24.20000","2.01648","2188.72"
"24.30000","2.02454","2195.9"
"24.40000","2.03301","2204.82"
"24.50000","2.04178","2212.2"
"24.60000","2.05044","2221.18"
"24.70000","2.05881","2227.59"
"24.80000","2.06687","2235.64"
"24.90000","2.07474","2242.97"
"25.00000","2.08290","2250.96"
"25.10000","2.09137","2259.64"
"25.20000","2.10004","2266.84"
"25.30000","2.10860","2275.1"
"25.40000","2.11687","2282.19"
"25.50000","2.12503","2288.68"
"25.60000","2.13310","2297.33"
"25.70000","2.14146","2305.76"
"25.80000","2.15003","2313.17"
"25.90000","2.15870","2321.34"
"26.00000","2.16696","2327.98"
"26.10000","2.17553","2335.49"
"26.20000","2.18359","2343.93"
"26.30000","2.19156","2350.43"
"26.40000","2.19992","2358.69"
"26.50000","2.20849","2366.45"
"26.60000","2.21686","2374.51"
"26.70000","2.22512","2381.55"
"26.80000","2.23379","2390.43"
"26.90000","2.24185","2397.72"
"27.00000","2.24971","2405.87"
"27.10000","2.25808","2412.96"
"27.20000","2.26685","2422.12"
"27.30000","2.27521","2429.89"
"27.40000","2.28338","2436.99"
"27.50000","2.29174","2445.22"
"27.60000","2.29981","2452.76"
"27.70000","2.30797","2460.62"
"27.80000","2.31644","2468.64"
"27.90000","2.32521","2476.97"
"28.00000","2.33378","2484.32"
"28.10000","2.34174","2492.29"
"28.20000","2.35000","2500.59"
"28.30000","2.35837","2507.71"
"28.40000","2.36674","2515.83"
"28.50000","2.37500","2522.74"
"28.60000","2.38347","2530.92"
"28.70000","2.39193","2539.13"
"28.80000","2.40030","2546.42"
"28.90000","2.40836","2553.25"
"29.00000","2.41653","2561.94"
"29.10000","2.42489","2568.82"
"29.20000","2.43326","2577.91"
"29.30000","2.44183","2585.47"
"29.40000","2.45019","2593.23"
"29.50000","2.45856","2601.4"
"29.60000","2.46662","2608.59"
"29.70000","2.47479","2615.79"
"29.80000","2.48305","2623.7"
"29.90000","2.49172","2631.27"
"30.00000","2.50039","2639.3"
"30.10000","2.50855","2646.4"
"30.20000","2.51672","2655.69"
"30.30000","2.52478","2662.71"
"30.40000","2.53315","2670.14"
"30.50000","2.54151","2678.3"
"30.60000","2.55008","2686.03"
"30.70000","2.55844","2694.54"
"30.80000","2.56671","2702.57"
"30.90000","2.57538","2709.89"
"31.00000","2.58354","2717.35"
"31.10000","2.59151","2724.67"
"31.20000","2.60007","2732.15"
"31.30000","2.60844","2741.12"
"31.40000","2.61670","2748.75"
"31.50000","2.62547","2756.43"
"31.60000","2.63374","2763.74"
"31.70000","2.64160","2771.3"
"31.80000","2.64976","2778.98"
"31.90000","2.65833","2787.04"
"32.00000","2.66710","2795.48"
"32.10000","2.67526","2802.71"
"32.20000","2.68353","2809.8"
"32.30000","2.69190","2818.45"
"32.40000","2.70016","2825.32"
"32.50000","2.70822","2834.26"
"32.60000","2.71679","2842.05"
"32.70000","2.72546","2850.34"
"32.80000","2.73362","2857.82"
"32.90000","2.74159","2865.57"
"33.00000","2.75005","2873.61"
"33.10000","2.75832","2880.95"
"33.20000","2.76638","2888.49"
"33.30000","2.77495","2897.01"
"33.40000","2.78342","2905.12"
"33.50000","2.79178","2913.54"
"33.60000","2.80015","2919.71"
"33.70000","2.80831","2927.26"
"33.80000","2.81648","2934.32"
"33.90000","2.82474","2942.67"
"34.00000","2.83341","2950.27"
"34.10000","2.84198","2958.78"
"34.20000","2.85034","2966.08"
"34.30000","2.85841","2973.88"
"34.40000","2.86657","2980.66"
"34.50000","2.87463","2988.49"
"34.60000","2.88320","2996.2"
"34.70000","2.89197","3004.95"
"34.80000","2.90054","3012.88"
"34.90000","2.90880","3019.78"
"35.00000","2.91687","3027.57"
"35.10000","2.92493","3034.9"
"35.20000","2.93320","3042.05"
"35.30000","2.94166","3050.52"
"35.40000","2.95013","3057.82"
"35.50000","2.95860","3065.83"
"35.60000","2.96706","3072.78"
"35.70000","2.97513","3079.81"
"35.80000","2.98309","3088.01"
"35.90000","2.99125","3094.45"
"36.00000","2.99982","3103.02"
"36.10000","3.00819","3110.6"
"36.20000","3.01635","3117.04"
"36.30000","3.02512","3125.72"
"36.40000","3.03328","3133.14"
"36.50000","3.04135","3140.23"
"36.60000","3.04951","3147.64"
"36.70000","3.05838","3155.49"
"36.80000","3.06715","3163.03"
"36.90000","3.07542","3170.88"
"37.00000","3.08368","3177.71"
"37.10000","3.09164","3184.61"
"37.20000","3.09971","3191.74"
"37.30000","3.10807","3198.98"
"37.40000","3.11684","3207.51"
"37.50000","3.12541","3215.74"
"37.60000","3.13347","3222.7"
"37.70000","3.14164","3229.39"
"37.80000","3.15000","3237.82"
"37.90000","3.15837","3244.85"
"38.00000","3.16673","3252.5"
"38.10000","3.17520","3260.8"
"38.20000","3.18377","3268.15"
"38.30000","3.19203","3275.39"
"38.40000","3.20000","3282.06"
"38.50000","3.20816","3289.47"
"38.60000","3.21653","3296.49"
"38.70000","3.22479","3303.6"
"38.80000","3.23326","3311.93"
"38.90000","3.24203","3319.12"
"39.00000","3.25029","3325.21"
"39.10000","3.25846","3333.36"
"39.20000","3.26642","3340.29"
"39.30000","3.27468","3347.37"
"39.40000","3.28355","3354.93"
"39.50000","3.29212","3361.79"
"39.60000","3.30029","3368.56"
"39.70000","3.30845","3375.53"
"39.80000","3.31651","3382.99"
"39.90000","3.32478","3388.77"
"40.00000","3.33314","3395.59"
"40.10000","3.34171","3403.14"
"40.20000","3.35028","3410.19"
"40.30000","3.35865","3417.13"
"40.40000","3.36691","3423.7"
"40.50000","3.37507","3430.46"
"40.60000","3.38324","3436.5"
"40.70000","3.39171","3443.4"
"40.80000","3.39997","3449.38"
"40.90000","3.40834","3455.53"
"41.00000","3.41711","3463.37"
"41.10000","3.42537","3468.92"
"41.20000","3.43333","3476.26"
"41.30000","3.44130","3481.31"
"41.40000","3.44986","3488.88"
"41.50000","3.45863","3494.85"
"41.60000","3.46690","3501.59"
"41.70000","3.47516","3506.47"
"41.80000","3.48353","3513.36"
"41.90000","3.49159","3518.3"
"42.00000","3.49976","3524.54"
"42.10000","3.50842","3529.72"
"42.20000","3.51709","3535.77"
"42.30000","3.52536","3542.26"
"42.40000","3.53332","3547.44"
"42.50000","3.54179","3551.52"
"42.60000","3.55015","3557.21"
"42.70000","3.55832","3562.06"
"42.80000","3.56668","3566.43"
"42.90000","3.57515","3570.98"
"43.00000","3.58352","3574.31"
"43.10000","3.59188","3578.47"
"43.20000","3.60005","3582.02"
"43.30000","3.60831","3583.25"
"43.40000","3.61648","3585.52"
"43.50000","3.62514","3587.36"
"43.60000","3.63371","3584.16"
"43.70000","3.64218","3566.78"
"43.71600","3.64359","3197.63"
"43.72000","3.64389","2852.28"
"43.72400","3.64429","2452.25"
"43.72800","3.64480","2044.32"