File: Data_Processing/Tensile-Data/Sequence_42.csv
General : Start date,"10/29/2024 10:49 AM"
General : End date,"10/29/2024 10:49 AM"
Specimen notes : Specimen note 1,"Day 2, black, 230, batch 5, seq 42"
Test : Rate 1,"5.00000",mm/min

Time,Extension,Load
(s),(mm),(N)
"0.00000","0.00000","1.16078"
"0.10000","0.00131","0.55198"
"0.20000","0.00998","11.48998"
"0.30000","0.02308","36.16082"
"0.40000","0.03225","53.72196"
"0.50000","0.04082","68.68416"
"0.60000","0.04959","83.01560"
"0.70000","0.05786","96.49145"
"0.80000","0.06632","109.82"
"0.90000","0.07479","124.102"
"1.00000","0.08336","138.205"
"1.10000","0.09192","150.852"
"1.20000","0.10039","164.9"
"1.30000","0.10855","177.742"
"1.40000","0.11692","191.336"
"1.50000","0.12508","203.644"
"1.60000","0.13315","217.26"
"1.70000","0.14162","229.761"
"1.80000","0.15038","244.384"
"1.90000","0.15885","257.222"
"2.00000","0.16702","269.507"
"2.10000","0.17508","283.327"
"2.20000","0.18324","296.204"
"2.30000","0.19161","309.207"
"2.40000","0.20018","322.448"
"2.50000","0.20854","335.539"
"2.60000","0.21711","349.281"
"2.70000","0.22527","362.634"
"2.80000","0.23314","373.995"
"2.90000","0.24140","386.392"
"3.00000","0.24987","399.228"
"3.10000","0.25843","411.662"
"3.20000","0.26680","423.641"
"3.30000","0.27517","436.12"
"3.40000","0.28333","447.433"
"3.50000","0.29139","459.904"
"3.60000","0.29966","472.007"
"3.70000","0.30823","483.866"
"3.80000","0.31679","496.92"
"3.90000","0.32526","508.827"
"4.00000","0.33332","520.07"
"4.10000","0.34189","532.988"
"4.20000","0.34996","544.925"
"4.30000","0.35812","556.379"
"4.40000","0.36679","569.248"
"4.50000","0.37556","581.097"
"4.60000","0.38382","591.913"
"4.70000","0.39209","602.992"
"4.80000","0.40025","614.513"
"4.90000","0.40832","624.296"
"5.00000","0.41648","635.164"
"5.10000","0.42505","646.651"
"5.20000","0.43372","658.512"
"5.30000","0.44198","668.609"
"5.40000","0.45014","679.612"
"5.50000","0.45821","689.777"
"5.60000","0.46637","699.228"
"5.70000","0.47484","709.821"
"5.80000","0.48351","720.941"
"5.90000","0.49197","732.524"
"6.00000","0.50024","742.558"
"6.10000","0.50840","753.185"
"6.20000","0.51647","762.317"
"6.30000","0.52483","772.585"
"6.40000","0.53320","782.365"
"6.50000","0.54177","792.324"
"6.60000","0.55033","802.623"
"6.70000","0.55850","812.121"
"6.80000","0.56676","822.581"
"6.90000","0.57493","831.909"
"7.00000","0.58329","842.475"
"7.10000","0.59166","851.967"
"7.20000","0.60023","861.853"
"7.30000","0.60869","871.567"
"7.40000","0.61696","880.675"
"7.50000","0.62512","888.092"
"7.60000","0.63308","896.126"
"7.70000","0.64155","903.794"
"7.80000","0.65012","911.65"
"7.90000","0.65838","920.233"
"8.00000","0.66665","928.692"
"8.10000","0.67532","938.483"
"8.20000","0.68358","945.105"
"8.30000","0.69155","953.916"
"8.40000","0.69981","961.472"
"8.50000","0.70828","968.844"
"8.60000","0.71674","977.918"
"8.70000","0.72501","986.847"
"8.80000","0.73337","994.233"
"8.90000","0.74154","1003"
"9.00000","0.74950","1010.46"
"9.10000","0.75797","1018.99"
"9.20000","0.76684","1028.87"
"9.30000","0.77541","1036.68"
"9.40000","0.78307","1044.91"
"9.50000","0.79153","1053.63"
"9.60000","0.80020","1062.41"
"9.70000","0.80847","1071.14"
"9.80000","0.81673","1078.45"
"9.90000","0.82530","1086.45"
"10.00000","0.83376","1094.45"
"10.10000","0.84203","1103.02"
"10.20000","0.85019","1110.76"
"10.30000","0.85816","1117.86"
"10.40000","0.86652","1125.8"
"10.50000","0.87489","1134.24"
"10.60000","0.88336","1142.03"
"10.70000","0.89182","1150.35"
"10.80000","0.90039","1158"
"10.90000","0.90865","1166.63"
"11.00000","0.91662","1174.21"
"11.10000","0.92478","1182.09"
"11.20000","0.93315","1190.39"
"11.30000","0.94202","1199.6"
"11.40000","0.95028","1206.95"
"11.50000","0.95845","1215.17"
"11.60000","0.96651","1222.85"
"11.70000","0.97467","1229.9"
"11.80000","0.98314","1238.12"
"11.90000","0.99161","1246.17"
"12.00000","1.00018","1254.82"
"12.10000","1.00854","1263.47"
"12.20000","1.01691","1270.91"
"12.30000","1.02507","1279.04"
"12.40000","1.03313","1285.59"
"12.50000","1.04150","1292.49"
"12.60000","1.04987","1300.95"
"12.70000","1.05853","1309.53"
"12.80000","1.06710","1316.92"
"12.90000","1.07557","1324.76"
"13.00000","1.08343","1332.17"
"13.10000","1.09139","1340.5"
"13.20000","1.09986","1348.11"
"13.30000","1.10873","1356.08"
"13.40000","1.11699","1363.64"
"13.50000","1.12526","1371.31"
"13.60000","1.13363","1377.92"
"13.70000","1.14159","1385.46"
"13.80000","1.14965","1392.68"
"13.90000","1.15832","1399.89"
"14.00000","1.16699","1407.46"
"14.10000","1.17535","1415.8"
"14.20000","1.18332","1422.36"
"14.30000","1.19158","1428.96"
"14.40000","1.19965","1436.33"
"14.50000","1.20791","1443.51"
"14.60000","1.21648","1451.35"
"14.70000","1.22495","1458.25"
"14.80000","1.23331","1466.34"
"14.90000","1.24178","1473.28"
"15.00000","1.24994","1479.63"
"15.10000","1.25811","1486.65"
"15.20000","1.26657","1494.19"
"15.30000","1.27504","1501.78"
"15.40000","1.28371","1508.93"
"15.50000","1.29217","1516.46"
"15.60000","1.30044","1523.8"
"15.70000","1.30860","1531.14"
"15.80000","1.31647","1537.8"
"15.90000","1.32473","1544.89"
"16.00000","1.33340","1552.92"
"16.10000","1.34217","1560.74"
"16.20000","1.35033","1567.65"
"16.30000","1.35830","1575.96"
"16.40000","1.36656","1582.84"
"16.50000","1.37493","1589.91"
"16.60000","1.38329","1597.3"
"16.70000","1.39186","1604.77"
"16.80000","1.40033","1612.77"
"16.90000","1.40849","1620.36"
"17.00000","1.41676","1627.08"
"17.10000","1.42472","1634.33"
"17.20000","1.43308","1641.15"
"17.30000","1.44185","1650.2"
"17.40000","1.45012","1657.16"
"17.50000","1.45838","1664.29"
"17.60000","1.46705","1671.33"
"17.70000","1.47542","1678.97"
"17.80000","1.48308","1686.41"
"17.90000","1.49134","1692.67"
"18.00000","1.50001","1700.56"
"18.10000","1.50868","1708.23"
"18.20000","1.51694","1715.18"
"18.30000","1.52521","1722.22"
"18.40000","1.53337","1729.24"
"18.50000","1.54164","1737.78"
"18.60000","1.54990","1743.86"
"18.70000","1.55847","1751.95"
"18.80000","1.56724","1760.3"
"18.90000","1.57530","1767.11"
"19.00000","1.58337","1774.27"
"19.10000","1.59173","1781.93"
"19.20000","1.59990","1788.83"
"19.30000","1.60826","1795.97"
"19.40000","1.61673","1804.05"
"19.50000","1.62520","1812.48"
"19.60000","1.63366","1819.46"
"19.70000","1.64173","1826.35"
"19.80000","1.64989","1834.5"
"19.90000","1.65826","1840.89"
"20.00000","1.66652","1848.98"
"20.10000","1.67489","1856.35"
"20.20000","1.68346","1863.27"
"20.30000","1.69192","1872"
"20.40000","1.70019","1878.04"
"20.50000","1.70825","1885.82"
"20.60000","1.71631","1892.25"
"20.70000","1.72498","1900.65"
"20.80000","1.73375","1909.41"
"20.90000","1.74202","1914.97"
"21.00000","1.75028","1922.94"
"21.10000","1.75845","1929.39"
"21.20000","1.76661","1937.32"
"21.30000","1.77488","1945.19"
"21.40000","1.78334","1952.61"
"21.50000","1.79201","1960.34"
"21.60000","1.80048","1967.76"
"21.70000","1.80874","1975.86"
"21.80000","1.81681","1982.64"
"21.90000","1.82497","1989.64"
"22.00000","1.83334","1997.09"
"22.10000","1.84140","2004"
"22.20000","1.84976","2011.87"
"22.30000","1.85843","2020.13"
"22.40000","1.86700","2027.23"
"22.50000","1.87516","2034.29"
"22.60000","1.88313","2042"
"22.70000","1.89139","2049.57"
"22.80000","1.90006","2058.37"
"22.90000","1.90843","2064.64"
"23.00000","1.91689","2073.13"
"23.10000","1.92546","2081.22"
"23.20000","1.93342","2088.67"
"23.30000","1.94139","2094.48"
"23.40000","1.94975","2101.98"
"23.50000","1.95862","2110.25"
"23.60000","1.96709","2117.5"
"23.70000","1.97525","2125.39"
"23.80000","1.98362","2133.94"
"23.90000","1.99188","2140.02"
"24.00000","2.00005","2147.42"
"24.10000","2.00841","2155.57"
"24.20000","2.01698","2162.85"
"24.30000","2.02535","2170.98"
"24.40000","2.03361","2178.67"
"24.50000","2.04178","2186.39"
"24.60000","2.04984","2193.22"
"24.70000","2.05810","2200.59"
"24.80000","2.06657","2209.15"
"24.90000","2.07514","2217.37"
"25.00000","2.08361","2224.26"
"25.10000","2.09197","2231.62"
"25.20000","2.10014","2238.52"
"25.30000","2.10800","2245.35"
"25.40000","2.11626","2253.07"
"25.50000","2.12483","2261.27"
"25.60000","2.13330","2269.43"
"25.70000","2.14186","2276.78"
"25.80000","2.15013","2284.04"
"25.90000","2.15829","2291.24"
"26.00000","2.16656","2298.27"
"26.10000","2.17482","2306.16"
"26.20000","2.18359","2313.88"
"26.30000","2.19196","2322.41"
"26.40000","2.20033","2329.07"
"26.50000","2.20869","2337.01"
"26.60000","2.21665","2344.65"
"26.70000","2.22472","2350.31"
"26.80000","2.23339","2359.55"
"26.90000","2.24185","2367.24"
"27.00000","2.25012","2375.29"
"27.10000","2.25858","2381.79"
"27.20000","2.26715","2390.16"
"27.30000","2.27501","2397.52"
"27.40000","2.28308","2405.12"
"27.50000","2.29144","2413.25"
"27.60000","2.30021","2421.53"
"27.70000","2.30848","2429.12"
"27.80000","2.31684","2435.95"
"27.90000","2.32521","2444.65"
"28.00000","2.33307","2451.22"
"28.10000","2.34134","2458.59"
"28.20000","2.34990","2466.76"
"28.30000","2.35867","2474.87"
"28.40000","2.36704","2482.79"
"28.50000","2.37500","2489.9"
"28.60000","2.38337","2497.36"
"28.70000","2.39163","2505.39"
"28.80000","2.40000","2512.29"
"28.90000","2.40836","2521.2"
"29.00000","2.41693","2529.12"
"29.10000","2.42530","2536.32"
"29.20000","2.43366","2543.33"
"29.30000","2.44173","2551.17"
"29.40000","2.44999","2558.18"
"29.50000","2.45816","2566.07"
"29.60000","2.46642","2574.05"
"29.70000","2.47509","2581.86"
"29.80000","2.48366","2588.22"
"29.90000","2.49192","2596.36"
"30.00000","2.49988","2603.28"
"30.10000","2.50795","2610.91"
"30.20000","2.51641","2617.89"
"30.30000","2.52528","2626.49"
"30.40000","2.53375","2634.36"
"30.50000","2.54202","2641.75"
"30.60000","2.54998","2649.45"
"30.70000","2.55814","2656.07"
"30.80000","2.56641","2664.18"
"30.90000","2.57487","2672.17"
"31.00000","2.58344","2679.82"
"31.10000","2.59181","2688.29"
"31.20000","2.60017","2695.53"
"31.30000","2.60864","2703.24"
"31.40000","2.61670","2711.35"
"31.50000","2.62507","2718.1"
"31.60000","2.63364","2726.51"
"31.70000","2.64170","2734.49"
"31.80000","2.65027","2742.09"
"31.90000","2.65884","2748.94"
"32.00000","2.66700","2756.72"
"32.10000","2.67486","2763.24"
"32.20000","2.68323","2771.55"
"32.30000","2.69190","2778.98"
"32.40000","2.70046","2786.73"
"32.50000","2.70863","2794.61"
"32.60000","2.71669","2801.61"
"32.70000","2.72526","2809.28"
"32.80000","2.73342","2817.49"
"32.90000","2.74139","2825.12"
"33.00000","2.75026","2832.28"
"33.10000","2.75892","2840.07"
"33.20000","2.76689","2847.42"
"33.30000","2.77485","2855.07"
"33.40000","2.78332","2863.98"
"33.50000","2.79148","2869.74"
"33.60000","2.79974","2878.62"
"33.70000","2.80841","2885.45"
"33.80000","2.81668","2893.06"
"33.90000","2.82504","2900.93"
"34.00000","2.83331","2908.4"
"34.10000","2.84147","2916.33"
"34.20000","2.84994","2922.84"
"34.30000","2.85821","2930.69"
"34.40000","2.86677","2939.47"
"34.50000","2.87524","2946.77"
"34.60000","2.88361","2954.41"
"34.70000","2.89177","2961.12"
"34.80000","2.89983","2968.84"
"34.90000","2.90810","2976.38"
"35.00000","2.91667","2984.34"
"35.10000","2.92533","2991.93"
"35.20000","2.93390","2999.88"
"35.30000","2.94196","3007.08"
"35.40000","2.95003","3014.76"
"35.50000","2.95829","3022.69"
"35.60000","2.96666","3029.46"
"35.70000","2.97513","3036.91"
"35.80000","2.98349","3044.71"
"35.90000","2.99196","3052.12"
"36.00000","3.00032","3059.24"
"36.10000","3.00819","3066.58"
"36.20000","3.01615","3073.29"
"36.30000","3.02482","3080.66"
"36.40000","3.03338","3089.51"
"36.50000","3.04145","3096.36"
"36.60000","3.04981","3103.91"
"36.70000","3.05848","3112.05"
"36.80000","3.06665","3119.67"
"36.90000","3.07461","3126.55"
"37.00000","3.08318","3134.17"
"37.10000","3.09195","3141.63"
"37.20000","3.10021","3149.19"
"37.30000","3.10848","3155.72"
"37.40000","3.11704","3163.04"
"37.50000","3.12521","3170.85"
"37.60000","3.13317","3178.72"
"37.70000","3.14164","3185.41"
"37.80000","3.15041","3193.01"
"37.90000","3.15877","3200.85"
"38.00000","3.16684","3208.26"
"38.10000","3.17500","3215.48"
"38.20000","3.18326","3221.75"
"38.30000","3.19163","3229.72"
"38.40000","3.20010","3238.09"
"38.50000","3.20856","3245.34"
"38.60000","3.21693","3253"
"38.70000","3.22530","3260.42"
"38.80000","3.23336","3267.46"
"38.90000","3.24162","3273.54"
"39.00000","3.24979","3280.96"
"39.10000","3.25785","3288.89"
"39.20000","3.26652","3295.89"
"39.30000","3.27529","3304.15"
"39.40000","3.28365","3311.82"
"39.50000","3.29182","3319.15"
"39.60000","3.29978","3325.31"
"39.70000","3.30805","3332.5"
"39.80000","3.31672","3340.43"
"39.90000","3.32528","3347.69"
"40.00000","3.33365","3354.48"
"40.10000","3.34181","3361.72"
"40.20000","3.34978","3368.26"
"40.30000","3.35814","3375.64"
"40.40000","3.36661","3382.7"
"40.50000","3.37518","3390.23"
"40.60000","3.38364","3397.03"
"40.70000","3.39211","3403.96"
"40.80000","3.40037","3411.39"
"40.90000","3.40834","3418.74"
"41.00000","3.41650","3425.85"
"41.10000","3.42497","3432.87"
"41.20000","3.43323","3439.3"
"41.30000","3.44170","3447.41"
"41.40000","3.45047","3454.28"
"41.50000","3.45873","3461.03"
"41.60000","3.46649","3467.45"
"41.70000","3.47456","3474.54"
"41.80000","3.48323","3482.76"
"41.90000","3.49189","3490.18"
"42.00000","3.50016","3496.58"
"42.10000","3.50863","3503.38"
"42.20000","3.51709","3510.1"
"42.30000","3.52475","3517.32"
"42.40000","3.53292","3523.75"
"42.50000","3.54179","3530.9"
"42.60000","3.55056","3539.05"
"42.70000","3.55872","3544.8"
"42.80000","3.56689","3551.89"
"42.90000","3.57525","3558.57"
"43.00000","3.58342","3565.41"
"43.10000","3.59168","3572.27"
"43.20000","3.60015","3578.74"
"43.30000","3.60861","3585.99"
"43.40000","3.61698","3592.14"
"43.50000","3.62514","3599"
"43.60000","3.63321","3604.79"
"43.70000","3.64147","3611.71"
"43.80000","3.64994","3617.85"
"43.90000","3.65861","3625.17"
"44.00000","3.66707","3631.33"
"44.10000","3.67544","3638.34"
"44.20000","3.68340","3643.88"
"44.30000","3.69157","3649.87"
"44.40000","3.69963","3656.82"
"44.50000","3.70810","3663.29"
"44.60000","3.71687","3669.08"
"44.70000","3.72543","3676.34"
"44.80000","3.73370","3682.51"
"44.90000","3.74176","3689.21"
"45.00000","3.74993","3695.27"
"45.10000","3.75829","3701.37"
"45.20000","3.76666","3707.49"
"45.30000","3.77533","3713.85"
"45.40000","3.78349","3719.62"
"45.50000","3.79186","3726.3"
"45.60000","3.80022","3731.16"
"45.70000","3.80808","3736.4"
"45.80000","3.81645","3741.55"
"45.90000","3.82512","3748.7"
"46.00000","3.83338","3754.63"
"46.10000","3.84185","3759.62"
"46.20000","3.85032","3765.41"
"46.30000","3.85858","3771.35"
"46.40000","3.86654","3775.94"
"46.50000","3.87481","3781.23"
"46.60000","3.88348","3786.86"
"46.70000","3.89194","3791.21"
"46.80000","3.90011","3796.05"
"46.90000","3.90817","3801.08"
"47.00000","3.91654","3806.62"
"47.10000","3.92480","3810.45"
"47.20000","3.93327","3816.2"
"47.30000","3.94194","3820.21"
"47.40000","3.95051","3824.92"
"47.50000","3.95847","3828.81"
"47.60000","3.96653","3833.25"
"47.70000","3.97500","3837.47"
"47.80000","3.98316","3841.1"
"47.90000","3.99163","3844.65"
"48.00000","4.00010","3850.39"
"48.10000","4.00866","3852.24"
"48.20000","4.01703","3856.38"
"48.30000","4.02509","3858.63"
"48.40000","4.03326","3861.16"
"48.50000","4.04162","3863.78"
"48.60000","4.04989","3866.76"
"48.70000","4.05846","3869.55"
"48.80000","4.06682","3871.55"
"48.90000","4.07539","3873.67"
"49.00000","4.08355","3873.96"
"49.10000","4.09152","3875.67"
"49.20000","4.09978","3875.24"
"49.30000","4.10825","3876.4"
"49.40000","4.11712","3876.72"
"49.50000","4.12558","3875.16"
"49.60000","4.13355","3872.53"
"49.70000","4.14161","3868.75"
"49.80000","4.14977","3864.13"
"49.90000","4.15824","3860.48"
"50.00000","4.16671","3853.79"
"50.10000","4.17517","3846.28"
"50.20000","4.18344","3833.9"
"50.30000","4.19201","3818.16"
"50.40000","4.20007","3795.18"
"50.50000","4.20813","3758.05"
"50.60000","4.21670","3675.14"
"50.62800","4.21922","3346.94"
"50.63200","4.21962","3008.23"
"50.63600","4.22003","2616.49"
"50.64000","4.22043","2197.17"