File: Data_Processing/Tensile-Data/Sequence_16.csv
General : Start date,"10/22/2024 9:55 AM"
General : End date,"10/22/2024 9:56 AM"
Specimen notes : Specimen note 1,"green, 200, batch 7, seq 16"
Test : Rate 1,"5.00000",mm/min

Time,Extension,Load
(s),(mm),(N)
"0.00000","0.00000","-0.46137"
"0.10000","0.00131","-0.92678"
"0.20000","0.00988","9.44160"
"0.30000","0.02308","31.81515"
"0.40000","0.03246","48.91557"
"0.50000","0.04092","62.03178"
"0.60000","0.04989","76.14305"
"0.70000","0.05826","91.28467"
"0.80000","0.06642","103.711"
"0.90000","0.07469","117.164"
"1.00000","0.08336","130.245"
"1.10000","0.09213","144.173"
"1.20000","0.10059","144.204"
"1.30000","0.10866","158.48"
"1.40000","0.11692","171.469"
"1.50000","0.12529","185.363"
"1.60000","0.13345","198.531"
"1.70000","0.14182","213.01"
"1.80000","0.15038","227.38"
"1.90000","0.15895","242.112"
"2.00000","0.16732","254.908"
"2.10000","0.17508","268.656"
"2.20000","0.18334","282.156"
"2.30000","0.19171","296.688"
"2.40000","0.20018","309.53"
"2.50000","0.20854","323.612"
"2.60000","0.21701","336.889"
"2.70000","0.22548","352.097"
"2.80000","0.23354","364.899"
"2.90000","0.24160","377.778"
"3.00000","0.25007","391.848"
"3.10000","0.25864","406.471"
"3.20000","0.26700","420.377"
"3.30000","0.27537","434.454"
"3.40000","0.28373","447.559"
"3.50000","0.29190","461.151"
"3.60000","0.30026","475.56"
"3.70000","0.30843","488.338"
"3.80000","0.31700","502.272"
"3.90000","0.32536","515.189"
"4.00000","0.33373","529.692"
"4.10000","0.34199","543.339"
"4.20000","0.35026","556.714"
"4.30000","0.35832","569.883"
"4.40000","0.36659","583.183"
"4.50000","0.37495","597.182"
"4.60000","0.38362","611.812"
"4.70000","0.39209","625.262"
"4.80000","0.40045","639.343"
"4.90000","0.40862","653.694"
"5.00000","0.41678","666.769"
"5.10000","0.42515","680.666"
"5.20000","0.43382","693.854"
"5.30000","0.44218","707.358"
"5.40000","0.45045","721.22"
"5.50000","0.45871","734.806"
"5.60000","0.46678","747.793"
"5.70000","0.47494","761.231"
"5.80000","0.48341","774.201"
"5.90000","0.49207","788.001"
"6.00000","0.50054","801.692"
"6.10000","0.50871","814.74"
"6.20000","0.51677","828.763"
"6.30000","0.52503","840.945"
"6.40000","0.53340","854.321"
"6.50000","0.54177","868.919"
"6.60000","0.55033","882.16"
"6.70000","0.55880","896"
"6.80000","0.56706","909.461"
"6.90000","0.57513","922.724"
"7.00000","0.58319","935.189"
"7.10000","0.59176","948.642"
"7.20000","0.60033","962.397"
"7.30000","0.60879","976.345"
"7.40000","0.61726","989.529"
"7.50000","0.62542","1003.21"
"7.60000","0.63339","1014.69"
"7.70000","0.64165","1027.72"
"7.80000","0.65012","1040.18"
"7.90000","0.65848","1054.45"
"8.00000","0.66665","1067.1"
"8.10000","0.67532","1080.95"
"8.20000","0.68378","1094.65"
"8.30000","0.69175","1106.57"
"8.40000","0.69971","1118.74"
"8.50000","0.70818","1132.66"
"8.60000","0.71695","1146.48"
"8.70000","0.72531","1159.85"
"8.80000","0.73368","1172.25"
"8.90000","0.74194","1185.33"
"9.00000","0.75011","1198.23"
"9.10000","0.75807","1210.89"
"9.20000","0.76664","1223.2"
"9.30000","0.77541","1237.4"
"9.40000","0.78387","1251.1"
"9.50000","0.79194","1263.1"
"9.60000","0.80010","1275.17"
"9.70000","0.80826","1288.39"
"9.80000","0.81673","1302.2"
"9.90000","0.82530","1315.25"
"10.00000","0.83376","1327.54"
"10.10000","0.84233","1340.14"
"10.20000","0.85050","1352.12"
"10.30000","0.85866","1365.4"
"10.40000","0.86683","1376.93"
"10.50000","0.87519","1389.59"
"10.60000","0.88346","1403.02"
"10.70000","0.89202","1416.47"
"10.80000","0.90059","1427.75"
"10.90000","0.90886","1441.14"
"11.00000","0.91682","1453.81"
"11.10000","0.92488","1465.11"
"11.20000","0.93335","1478.72"
"11.30000","0.94182","1491.61"
"11.40000","0.95038","1502.78"
"11.50000","0.95865","1515.27"
"11.60000","0.96671","1527.19"
"11.70000","0.97467","1539.16"
"11.80000","0.98304","1551.66"
"11.90000","0.99171","1562.86"
"12.00000","1.00028","1575.96"
"12.10000","1.00884","1589.26"
"12.20000","1.01711","1601.68"
"12.30000","1.02537","1614.29"
"12.40000","1.03364","1626.32"
"12.50000","1.04200","1638.52"
"12.60000","1.05037","1651.14"
"12.70000","1.05864","1663.71"
"12.80000","1.06700","1675.42"
"12.90000","1.07557","1688.48"
"13.00000","1.08373","1700.73"
"13.10000","1.09170","1712.2"
"13.20000","1.10006","1724.24"
"13.30000","1.10863","1736.7"
"13.40000","1.11720","1748.93"
"13.50000","1.12546","1759.48"
"13.60000","1.13383","1771.43"
"13.70000","1.14199","1783.34"
"13.80000","1.14995","1795.05"
"13.90000","1.15822","1806.28"
"14.00000","1.16679","1819.11"
"14.10000","1.17546","1825.77"
"14.20000","1.18362","1837.93"
"14.30000","1.19178","1850.37"
"14.40000","1.20015","1862.19"
"14.50000","1.20841","1873.44"
"14.60000","1.21678","1885.73"
"14.70000","1.22535","1897.42"
"14.80000","1.23371","1908.82"
"14.90000","1.24198","1919.97"
"15.00000","1.25024","1932.01"
"15.10000","1.25831","1942.9"
"15.20000","1.26657","1954"
"15.30000","1.27494","1965.15"
"15.40000","1.28361","1977.28"
"15.50000","1.29217","1990.52"
"15.60000","1.30054","2002.19"
"15.70000","1.30870","2012.87"
"15.80000","1.31667","2023.53"
"15.90000","1.32503","2034.97"
"16.00000","1.33350","2045"
"16.10000","1.34207","2057.09"
"16.20000","1.35053","2068.9"
"16.30000","1.35870","2078.88"
"16.40000","1.36686","2090.81"
"16.50000","1.37493","2102.34"
"16.60000","1.38349","2112.95"
"16.70000","1.39186","2124.69"
"16.80000","1.40033","2135.66"
"16.90000","1.40889","2146.68"
"17.00000","1.41716","2159.1"
"17.10000","1.42532","2169.73"
"17.20000","1.43329","2179.93"
"17.30000","1.44165","2190.57"
"17.40000","1.45022","2201.61"
"17.50000","1.45848","2213.63"
"17.60000","1.46685","2224.21"
"17.70000","1.47552","2235.89"
"17.80000","1.48368","2246.34"
"17.90000","1.49154","2256.97"
"18.00000","1.49981","2267.94"
"18.10000","1.50868","2280.51"
"18.20000","1.51694","2292.08"
"18.30000","1.52531","2301.27"
"18.40000","1.53388","2313.16"
"18.50000","1.54184","2323.61"
"18.60000","1.54990","2335.05"
"18.70000","1.55827","2334.14"
"18.80000","1.56714","2345.83"
"18.90000","1.57551","2356.95"
"19.00000","1.58367","2368.55"
"19.10000","1.59193","2377.55"
"19.20000","1.60030","2388.6"
"19.30000","1.60846","2398.93"
"19.40000","1.61673","2409.13"
"19.50000","1.62530","2420.54"
"19.60000","1.63376","2431.13"
"19.70000","1.64203","2441.94"
"19.80000","1.65019","2451.75"
"19.90000","1.65836","2462.11"
"20.00000","1.66662","2472.85"
"20.10000","1.67509","2483.74"
"20.20000","1.68366","2493.61"
"20.30000","1.69212","2504.6"
"20.40000","1.70049","2515.83"
"20.50000","1.70865","2525.79"
"20.60000","1.71662","2535.5"
"20.70000","1.72488","2546.07"
"20.80000","1.73365","2554.06"
"20.90000","1.74222","2565.22"
"21.00000","1.75048","2575.1"
"21.10000","1.75865","2584.6"
"21.20000","1.76671","2595.02"
"21.30000","1.77508","2604.69"
"21.40000","1.78344","2615.31"
"21.50000","1.79191","2625.28"
"21.60000","1.80038","2636.14"
"21.70000","1.80884","2645.55"
"21.80000","1.81711","2655.09"
"21.90000","1.82507","2665.28"
"22.00000","1.83323","2674.72"
"22.10000","1.84180","2684.59"
"22.20000","1.85007","2694.35"
"22.30000","1.85853","2704.34"
"22.40000","1.86730","2714.65"
"22.50000","1.87557","2724.44"
"22.60000","1.88333","2734.03"
"22.70000","1.89149","2743.32"
"22.80000","1.90016","2753.31"
"22.90000","1.90883","2763.78"
"23.00000","1.91709","2773.99"
"23.10000","1.92526","2782.27"
"23.20000","1.93383","2793.49"
"23.30000","1.94189","2802.95"
"23.40000","1.94995","2811.42"
"23.50000","1.95862","2821.32"
"23.60000","1.96729","2832.51"
"23.70000","1.97545","2841.44"
"23.80000","1.98362","2850.98"
"23.90000","1.99198","2860.32"
"24.00000","2.00025","2869.82"
"24.10000","2.00831","2877.51"
"24.20000","2.01698","2887.41"
"24.30000","2.02565","2897.53"
"24.40000","2.03381","2906.73"
"24.50000","2.04198","2916.37"
"24.60000","2.04994","2924.17"
"24.70000","2.05831","2933.87"
"24.80000","2.06667","2942.17"
"24.90000","2.07524","2951.11"
"25.00000","2.08391","2960.32"
"25.10000","2.09217","2969.32"
"25.20000","2.10034","2975.73"
"25.30000","2.10830","2983.69"
"25.40000","2.11636","2990.15"
"25.50000","2.12493","2997.51"
"25.60000","2.13380","3005.41"
"25.70000","2.14237","3013.29"
"25.80000","2.15053","3022.22"
"25.90000","2.15850","3029.82"
"26.00000","2.16666","3037.22"
"26.10000","2.17513","3045.78"
"26.20000","2.18349","3053.34"
"26.30000","2.19196","3061.95"
"26.40000","2.20022","3069.7"
"26.50000","2.20889","3078"
"26.60000","2.21706","3068.37"
"26.70000","2.22512","3065.25"
"26.80000","2.23349","3069.81"
"26.90000","2.24185","3075.33"
"27.00000","2.25032","3082.46"
"27.10000","2.25879","3089.51"
"27.20000","2.26725","3097.29"
"27.30000","2.27532","3103.63"
"27.40000","2.28328","3110.06"
"27.50000","2.29164","3117.42"
"27.60000","2.30021","3124.09"
"27.70000","2.30868","3132.71"
"27.80000","2.31694","3141.24"
"27.90000","2.32511","3146.67"
"28.00000","2.33357","3153.48"
"28.10000","2.34164","3159.81"
"28.20000","2.34970","3166.73"
"28.30000","2.35857","3173.68"
"28.40000","2.36714","3182.39"
"28.50000","2.37510","3188.64"
"28.60000","2.38337","3195.46"
"28.70000","2.39183","3202.9"
"28.80000","2.40030","3209.66"
"28.90000","2.40867","3217.64"
"29.00000","2.41723","3225.21"
"29.10000","2.42550","3231.33"
"29.20000","2.43366","3236.75"
"29.30000","2.44193","3244.61"
"29.40000","2.45009","3249.76"
"29.50000","2.45856","3256.94"
"29.60000","2.46662","3263.32"
"29.70000","2.47529","3270.37"
"29.80000","2.48376","3277.34"
"29.90000","2.49222","3284.45"
"30.00000","2.50039","3291.03"
"30.10000","2.50835","3296.63"
"30.20000","2.51651","3302.08"
"30.30000","2.52508","3309.28"
"30.40000","2.53365","3315.11"
"30.50000","2.54202","3319.7"
"30.60000","2.55028","3323.57"
"30.70000","2.55834","3318.9"
"30.80000","2.56661","3291.92"
"30.90000","2.57508","3286.71"
"31.00000","2.58364","3290.16"
"31.10000","2.59191","3295.5"
"31.20000","2.60038","3301.56"
"31.30000","2.60884","3297.41"
"31.40000","2.61691","3301.42"
"31.50000","2.62497","3306.38"
"31.60000","2.63344","3312.59"
"31.70000","2.64180","3317.49"
"31.80000","2.65017","3323.88"
"31.90000","2.65894","3329.99"
"32.00000","2.66740","3337.23"
"32.10000","2.67526","3343.28"
"32.20000","2.68313","3348.98"
"32.30000","2.69159","3355.26"
"32.40000","2.70056","3362.14"
"32.50000","2.70883","3364.5"
"32.60000","2.71719","3351.63"
"32.70000","2.72536","3358.55"
"32.80000","2.73332","3364.52"
"32.90000","2.74149","3372.55"
"33.00000","2.75015","3380.31"
"33.10000","2.75882","3387.22"
"33.20000","2.76699","3393.59"
"33.30000","2.77505","3400.73"
"33.40000","2.78332","3406.35"
"33.50000","2.79178","3412.66"
"33.60000","2.79995","3419.52"
"33.70000","2.80841","3425.72"
"33.80000","2.81698","3431.21"
"33.90000","2.82535","3437.62"
"34.00000","2.83381","3445.05"
"34.10000","2.84188","3451.41"
"34.20000","2.85004","3456.96"
"34.30000","2.85831","3462.08"
"34.40000","2.86697","3469"
"34.50000","2.87554","3475.5"
"34.60000","2.88411","3481.8"
"34.70000","2.89227","3486.78"
"34.80000","2.90024","3492.17"
"34.90000","2.90820","3497.78"
"35.00000","2.91656","3503.09"
"35.10000","2.92533","3508.84"
"35.20000","2.93400","3514.48"
"35.30000","2.94227","3520.81"
"35.40000","2.95033","3526.17"
"35.50000","2.95829","3530.87"
"35.60000","2.96666","3536.67"
"35.70000","2.97502","3542.5"
"35.80000","2.98369","3548.37"
"35.90000","2.99196","3553.47"
"36.00000","3.00042","3558.82"
"36.10000","3.00859","3563.89"
"36.20000","3.01665","3568.28"
"36.30000","3.02482","3573.44"
"36.40000","3.03349","3578.22"
"36.50000","3.04175","3583.05"
"36.60000","3.05022","3588.46"
"36.70000","3.05889","3593.11"
"36.80000","3.06715","3597.25"
"36.90000","3.07491","3602.44"
"37.00000","3.08308","3606.69"
"37.10000","3.09184","3611.71"
"37.20000","3.10051","3615.91"
"37.30000","3.10878","3620.74"
"37.40000","3.11704","3624.84"
"37.50000","3.12531","3628.88"
"37.60000","3.13337","3632.32"
"37.70000","3.14154","3635.82"
"37.80000","3.15041","3640.04"
"37.90000","3.15907","3645.11"
"38.00000","3.16724","3648.25"
"38.10000","3.17510","3651.84"
"38.20000","3.18367","3654.82"
"38.30000","3.19193","3658.38"
"38.40000","3.20030","3661.31"
"38.50000","3.20866","3664.68"
"38.60000","3.21713","3668.8"
"38.70000","3.22550","3671.45"
"38.80000","3.23356","3674.15"
"38.90000","3.24162","3675.72"
"39.00000","3.24979","3678.76"
"39.10000","3.25825","3681.53"
"39.20000","3.26692","3684.32"
"39.30000","3.27549","3686.84"
"39.40000","3.28406","3689.36"
"39.50000","3.29212","3691.09"
"39.60000","3.30018","3692.29"
"39.70000","3.30835","3691.95"
"39.80000","3.31692","3693.61"
"39.90000","3.32559","3695.3"
"40.00000","3.33415","3695.29"
"40.10000","3.34222","3693.45"
"40.20000","3.35018","3690.95"
"40.30000","3.35824","3687.02"
"40.40000","3.36651","3681.34"
"40.50000","3.37518","3671.25"
"40.60000","3.38374","3649.59"
"40.70000","3.39211","3571.97"
"40.80000","3.40058","3390.89"
"40.90000","3.40874","3308.55"
"41.00000","3.41690","3244.69"
"41.05400","3.42134","2880.33"
"41.05800","3.42174","2571.91"
"41.06200","3.42215","2216.28"
"41.06600","3.42265","1851.6"