File: Data_Processing/Tensile-Data/Sequence_37.csv
General : Start date,"10/29/2024 10:38 AM"
General : End date,"10/29/2024 10:39 AM"
Specimen notes : Specimen note 1,"Day 2, red, 215, batch 7, seq 37"
Test : Rate 1,"5.00000",mm/min

Time,Extension,Load
(s),(mm),(N)
"0.00000","0.00000","-0.34632"
"0.10000","0.00141","-0.17394"
"0.20000","0.01068","12.56852"
"0.30000","0.02359","37.05210"
"0.40000","0.03286","56.73894"
"0.50000","0.04122","72.41962"
"0.60000","0.04969","87.27682"
"0.70000","0.05796","101.202"
"0.80000","0.06693","115.824"
"0.90000","0.07570","131.149"
"1.00000","0.08406","145.256"
"1.10000","0.09202","158.856"
"1.20000","0.10009","173.729"
"1.30000","0.10835","187.754"
"1.40000","0.11692","201.724"
"1.50000","0.12549","216.491"
"1.60000","0.13385","231.246"
"1.70000","0.14232","244.726"
"1.80000","0.15038","259.654"
"1.90000","0.15845","272.715"
"2.00000","0.16661","285.534"
"2.10000","0.17518","300.228"
"2.20000","0.18375","314.446"
"2.30000","0.19191","329.438"
"2.40000","0.20038","342.591"
"2.50000","0.20854","355.976"
"2.60000","0.21671","369.858"
"2.70000","0.22507","384.217"
"2.80000","0.23354","397.526"
"2.90000","0.24211","412.907"
"3.00000","0.25027","426.576"
"3.10000","0.25884","439.369"
"3.20000","0.26710","453.764"
"3.30000","0.27517","466.88"
"3.40000","0.28333","479.255"
"3.50000","0.29210","494.52"
"3.60000","0.30067","508.017"
"3.70000","0.30893","521.584"
"3.80000","0.31710","535.005"
"3.90000","0.32536","547.611"
"4.00000","0.33343","561.5"
"4.10000","0.34169","573.597"
"4.20000","0.35036","587.64"
"4.30000","0.35872","601.489"
"4.40000","0.36699","615.066"
"4.50000","0.37536","626.955"
"4.60000","0.38342","640.749"
"4.70000","0.39158","652.907"
"4.80000","0.39995","666.539"
"4.90000","0.40872","679.671"
"5.00000","0.41708","692.279"
"5.10000","0.42545","704.974"
"5.20000","0.43351","717.394"
"5.30000","0.44168","729.765"
"5.40000","0.44984","741.891"
"5.50000","0.45841","754.905"
"5.60000","0.46698","768.442"
"5.70000","0.47544","780.918"
"5.80000","0.48361","792.892"
"5.90000","0.49187","806.05"
"6.00000","0.50024","818.187"
"6.10000","0.50850","831.218"
"6.20000","0.51707","844.143"
"6.30000","0.52554","856.633"
"6.40000","0.53400","868.834"
"6.50000","0.54217","880.949"
"6.60000","0.55033","892.133"
"6.70000","0.55840","904.306"
"6.80000","0.56676","915.794"
"6.90000","0.57523","927.604"
"7.00000","0.58349","940.545"
"7.10000","0.59196","953.148"
"7.20000","0.60043","964.193"
"7.30000","0.60849","976.051"
"7.40000","0.61655","987.416"
"7.50000","0.62492","997.731"
"7.60000","0.63359","1009.85"
"7.70000","0.64206","1022.83"
"7.80000","0.65032","1033.5"
"7.90000","0.65859","1045.41"
"8.00000","0.66645","1055.94"
"8.10000","0.67451","1067.32"
"8.20000","0.68338","1078.92"
"8.30000","0.69205","1090.51"
"8.40000","0.70031","1102.14"
"8.50000","0.70828","1112.47"
"8.60000","0.71684","1125.15"
"8.70000","0.72541","1136.41"
"8.80000","0.73358","1146.75"
"8.90000","0.74194","1158.2"
"9.00000","0.75061","1170.03"
"9.10000","0.75888","1180.1"
"9.20000","0.76714","1191.7"
"9.30000","0.77530","1202.55"
"9.40000","0.78347","1212.43"
"9.50000","0.79173","1224.09"
"9.60000","0.80030","1235.2"
"9.70000","0.80867","1246.65"
"9.80000","0.81723","1256.54"
"9.90000","0.82550","1266.22"
"10.00000","0.83356","1276.51"
"10.10000","0.84163","1286.87"
"10.20000","0.84989","1296.17"
"10.30000","0.85856","1306.81"
"10.40000","0.86723","1317.67"
"10.50000","0.87549","1327.51"
"10.60000","0.88366","1336.93"
"10.70000","0.89162","1347.62"
"10.80000","0.89989","1356.53"
"10.90000","0.90825","1366.33"
"11.00000","0.91692","1377.09"
"11.10000","0.92539","1387.05"
"11.20000","0.93365","1395.98"
"11.30000","0.94182","1405.85"
"11.40000","0.95008","1415.12"
"11.50000","0.95835","1425.07"
"11.60000","0.96671","1434.24"
"11.70000","0.97508","1444.04"
"11.80000","0.98365","1454.29"
"11.90000","0.99241","1464.78"
"12.00000","1.00058","1474.75"
"12.10000","1.00844","1482.54"
"12.20000","1.01660","1492.18"
"12.30000","1.02517","1502.87"
"12.40000","1.03394","1512.17"
"12.50000","1.04221","1520.6"
"12.60000","1.05047","1530.54"
"12.70000","1.05864","1539.69"
"12.80000","1.06660","1549.1"
"12.90000","1.07486","1557.1"
"13.00000","1.08363","1567.6"
"13.10000","1.09230","1577.15"
"13.20000","1.10036","1585.67"
"13.30000","1.10833","1595.48"
"13.40000","1.11669","1604.38"
"13.50000","1.12486","1613.89"
"13.60000","1.13322","1622.15"
"13.70000","1.14199","1633.2"
"13.80000","1.15026","1642.08"
"13.90000","1.15862","1651.41"
"14.00000","1.16689","1661.42"
"14.10000","1.17515","1670.47"
"14.20000","1.18352","1679.65"
"14.30000","1.19178","1689.06"
"14.40000","1.20025","1697.76"
"14.50000","1.20872","1707.58"
"14.60000","1.21728","1715.85"
"14.70000","1.22555","1725.11"
"14.80000","1.23341","1733.55"
"14.90000","1.24158","1741.77"
"15.00000","1.24984","1750.91"
"15.10000","1.25871","1761.18"
"15.20000","1.26738","1769.98"
"15.30000","1.27554","1778.2"
"15.40000","1.28361","1788.09"
"15.50000","1.29177","1797.63"
"15.60000","1.30014","1805.76"
"15.70000","1.30840","1815.32"
"15.80000","1.31697","1824.73"
"15.90000","1.32554","1834.48"
"16.00000","1.33390","1844.08"
"16.10000","1.34197","1852.22"
"16.20000","1.34983","1860.45"
"16.30000","1.35840","1869.37"
"16.40000","1.36676","1878.83"
"16.50000","1.37493","1886.56"
"16.60000","1.38359","1896.74"
"16.70000","1.39256","1906.65"
"16.80000","1.40043","1915.01"
"16.90000","1.40809","1922.42"
"17.00000","1.41655","1931.06"
"17.10000","1.42512","1940.83"
"17.20000","1.43379","1950.37"
"17.30000","1.44216","1958.67"
"17.40000","1.45042","1967.83"
"17.50000","1.45858","1976.19"
"17.60000","1.46665","1985.28"
"17.70000","1.47501","1994.85"
"17.80000","1.48368","2002.85"
"17.90000","1.49225","2012.41"
"18.00000","1.50041","2021"
"18.10000","1.50848","2029.09"
"18.20000","1.51684","2038.03"
"18.30000","1.52511","2046.24"
"18.40000","1.53347","2055.61"
"18.50000","1.54204","2063.98"
"18.60000","1.55041","2072.58"
"18.70000","1.55867","2081.59"
"18.80000","1.56684","2089.63"
"18.90000","1.57500","2098.33"
"19.00000","1.58327","2107.32"
"19.10000","1.59163","2116.1"
"19.20000","1.60020","2125.43"
"19.30000","1.60887","2133.19"
"19.40000","1.61723","2141.63"
"19.50000","1.62540","2150.39"
"19.60000","1.63336","2158.01"
"19.70000","1.64163","2166.47"
"19.80000","1.65040","2175.78"
"19.90000","1.65896","2184.39"
"20.00000","1.66713","2192.45"
"20.10000","1.67539","2201.15"
"20.20000","1.68335","2208.88"
"20.30000","1.69152","2217.75"
"20.40000","1.69999","2225.91"
"20.50000","1.70875","2234.83"
"20.60000","1.71732","2243.39"
"20.70000","1.72559","2251.48"
"20.80000","1.73375","2260.12"
"20.90000","1.74192","2268.92"
"21.00000","1.75018","2277.78"
"21.10000","1.75845","2285.45"
"21.20000","1.76671","2293.36"
"21.30000","1.77528","2302.64"
"21.40000","1.78395","2311.17"
"21.50000","1.79221","2319.86"
"21.60000","1.80007","2328.26"
"21.70000","1.80804","2335.46"
"21.80000","1.81660","2345.1"
"21.90000","1.82537","2353.4"
"22.00000","1.83384","2362.21"
"22.10000","1.84221","2369.88"
"22.20000","1.85027","2378"
"22.30000","1.85813","2386.33"
"22.40000","1.86640","2394.72"
"22.50000","1.87516","2404.17"
"22.60000","1.88383","2412.71"
"22.70000","1.89200","2420.9"
"22.80000","1.89996","2429.11"
"22.90000","1.90853","2438.09"
"23.00000","1.91689","2446.99"
"23.10000","1.92526","2455"
"23.20000","1.93383","2463.34"
"23.30000","1.94229","2472.65"
"23.40000","1.95056","2480.8"
"23.50000","1.95892","2488.48"
"23.60000","1.96679","2497.52"
"23.70000","1.97495","2506"
"23.80000","1.98322","2513.81"
"23.90000","1.99188","2522.01"
"24.00000","2.00035","2531.14"
"24.10000","2.00882","2539.09"
"24.20000","2.01698","2547.67"
"24.30000","2.02504","2554.86"
"24.40000","2.03311","2562.52"
"24.50000","2.04157","2571.4"
"24.60000","2.05034","2580.35"
"24.70000","2.05871","2588.48"
"24.80000","2.06697","2596.85"
"24.90000","2.07504","2605.32"
"25.00000","2.08330","2612.7"
"25.10000","2.09177","2621.09"
"25.20000","2.10014","2629.33"
"25.30000","2.10880","2638.83"
"25.40000","2.11717","2646.57"
"25.50000","2.12564","2655.31"
"25.60000","2.13390","2663.53"
"25.70000","2.14166","2670.09"
"25.80000","2.15013","2678.35"
"25.90000","2.15870","2687.75"
"26.00000","2.16696","2695.63"
"26.10000","2.17523","2703.71"
"26.20000","2.18379","2711.3"
"26.30000","2.19226","2720.99"
"26.40000","2.20012","2728.26"
"26.50000","2.20819","2736.09"
"26.60000","2.21686","2744.56"
"26.70000","2.22532","2752.32"
"26.80000","2.23349","2760.11"
"26.90000","2.24195","2769.58"
"27.00000","2.25002","2777.48"
"27.10000","2.25818","2784.96"
"27.20000","2.26655","2793.2"
"27.30000","2.27532","2801.89"
"27.40000","2.28398","2809.72"
"27.50000","2.29215","2817.72"
"27.60000","2.30021","2826.33"
"27.70000","2.30858","2833.7"
"27.80000","2.31694","2841.64"
"27.90000","2.32521","2850.54"
"28.00000","2.33357","2857.61"
"28.10000","2.34204","2866.24"
"28.20000","2.35041","2874.27"
"28.30000","2.35877","2881.99"
"28.40000","2.36694","2890.39"
"28.50000","2.37510","2897.31"
"28.60000","2.38327","2905.25"
"28.70000","2.39173","2913.43"
"28.80000","2.40020","2921.61"
"28.90000","2.40877","2929.71"
"29.00000","2.41703","2937.58"
"29.10000","2.42509","2944.97"
"29.20000","2.43316","2952.58"
"29.30000","2.44173","2960.97"
"29.40000","2.45039","2969.56"
"29.50000","2.45886","2977.47"
"29.60000","2.46713","2985.23"
"29.70000","2.47509","2992.27"
"29.80000","2.48335","3000.22"
"29.90000","2.49162","3007.65"
"30.00000","2.50029","3016.24"
"30.10000","2.50865","3024.18"
"30.20000","2.51692","3032.08"
"30.30000","2.52528","3039.57"
"30.40000","2.53375","3048.25"
"30.50000","2.54181","3055.97"
"30.60000","2.55018","3063.65"
"30.70000","2.55855","3070.51"
"30.80000","2.56691","3078.83"
"30.90000","2.57558","3087.18"
"31.00000","2.58405","3095.16"
"31.10000","2.59201","3102.27"
"31.20000","2.59987","3109.94"
"31.30000","2.60834","3116.98"
"31.40000","2.61711","3125.41"
"31.50000","2.62557","3133.97"
"31.60000","2.63394","3141.15"
"31.70000","2.64220","3148.24"
"31.80000","2.65027","3156.58"
"31.90000","2.65823","3164.61"
"32.00000","2.66670","3171.63"
"32.10000","2.67567","3180.1"
"32.20000","2.68403","3187.65"
"32.30000","2.69190","3195.57"
"32.40000","2.70016","3203.23"
"32.50000","2.70843","3211.16"
"32.60000","2.71659","3218.27"
"32.70000","2.72496","3226.18"
"32.80000","2.73362","3234.14"
"32.90000","2.74199","3242.15"
"33.00000","2.75036","3249.99"
"33.10000","2.75852","3257.56"
"33.20000","2.76658","3264.47"
"33.30000","2.77495","3272.76"
"33.40000","2.78342","3280.81"
"33.50000","2.79198","3289.16"
"33.60000","2.80055","3297.16"
"33.70000","2.80872","3303.71"
"33.80000","2.81688","3310.66"
"33.90000","2.82484","3317.99"
"34.00000","2.83331","3326.65"
"34.10000","2.84198","3334.22"
"34.20000","2.85054","3342.78"
"34.30000","2.85901","3349.34"
"34.40000","2.86707","3356.34"
"34.50000","2.87504","3363.51"
"34.60000","2.88340","3370.71"
"34.70000","2.89187","3378.69"
"34.80000","2.90044","3386.03"
"34.90000","2.90890","3394.38"
"35.00000","2.91717","3402.15"
"35.10000","2.92543","3409.95"
"35.20000","2.93340","3416.3"
"35.30000","2.94146","3424.58"
"35.40000","2.94993","3430.8"
"35.50000","2.95829","3438.9"
"35.60000","2.96656","3446.7"
"35.70000","2.97513","3453.94"
"35.80000","2.98359","3461.84"
"35.90000","2.99166","3469.5"
"36.00000","2.99982","3475.98"
"36.10000","3.00849","3484.1"
"36.20000","3.01726","3493.18"
"36.30000","3.02542","3499.3"
"36.40000","3.03379","3507.12"
"36.50000","3.04225","3515.2"
"36.60000","3.05022","3521.94"
"36.70000","3.05818","3528.37"
"36.80000","3.06685","3535.05"
"36.90000","3.07552","3544.26"
"37.00000","3.08368","3551.5"
"37.10000","3.09184","3558.28"
"37.20000","3.10031","3565.84"
"37.30000","3.10878","3574.31"
"37.40000","3.11714","3580.66"
"37.50000","3.12541","3588.09"
"37.60000","3.13398","3595.54"
"37.70000","3.14224","3602.85"
"37.80000","3.15031","3610.1"
"37.90000","3.15847","3617.29"
"38.00000","3.16684","3624.01"
"38.10000","3.17500","3631.9"
"38.20000","3.18337","3639.02"
"38.30000","3.19213","3646.96"
"38.40000","3.20040","3654.12"
"38.50000","3.20877","3661.43"
"38.60000","3.21673","3668.21"
"38.70000","3.22489","3675.51"
"38.80000","3.23336","3682.2"
"38.90000","3.24203","3690.31"
"39.00000","3.25059","3697.33"
"39.10000","3.25866","3704.6"
"39.20000","3.26672","3711.94"
"39.30000","3.27499","3718.19"
"39.40000","3.28345","3725.77"
"39.50000","3.29182","3732.84"
"39.60000","3.30039","3741.09"
"39.70000","3.30875","3748.5"
"39.80000","3.31712","3755.32"
"39.90000","3.32528","3762.15"
"40.00000","3.33335","3768.96"
"40.10000","3.34161","3775.93"
"40.20000","3.35008","3783.13"
"40.30000","3.35834","3790.62"
"40.40000","3.36711","3797.68"
"40.50000","3.37568","3805.37"
"40.60000","3.38374","3811.46"
"40.70000","3.39161","3817.97"
"40.80000","3.39987","3824.46"
"40.90000","3.40864","3832.37"
"41.00000","3.41711","3839.91"
"41.10000","3.42527","3846.72"
"41.20000","3.43374","3853.31"
"41.30000","3.44200","3860.1"
"41.40000","3.44986","3866.33"
"41.50000","3.45823","3872.77"
"41.60000","3.46710","3880.34"
"41.70000","3.47567","3889.03"
"41.80000","3.48363","3894.44"
"41.90000","3.49179","3901.24"
"42.00000","3.50016","3907.68"
"42.10000","3.50842","3913.4"
"42.20000","3.51679","3920.72"
"42.30000","3.52536","3927.89"
"42.40000","3.53362","3934.17"
"42.50000","3.54209","3941.23"
"42.60000","3.55056","3947.9"
"42.70000","3.55842","3954.78"
"42.80000","3.56628","3959.93"
"42.90000","3.57495","3967.04"
"43.00000","3.58382","3974.41"
"43.10000","3.59249","3981.67"
"43.20000","3.60075","3987.39"
"43.30000","3.60871","3993.5"
"43.40000","3.61668","3998.53"
"43.50000","3.62494","4005.07"
"43.60000","3.63361","4012.73"
"43.70000","3.64218","4019.38"
"43.80000","3.65064","4025.57"
"43.90000","3.65881","4031.58"
"44.00000","3.66687","4037.45"
"44.10000","3.67504","4042.98"
"44.20000","3.68340","4049.73"
"44.30000","3.69197","4056.49"
"44.40000","3.70054","4062.76"
"44.50000","3.70870","4069.01"
"44.60000","3.71717","4075.28"
"44.70000","3.72523","4080.99"
"44.80000","3.73330","4086.03"
"44.90000","3.74176","4092.17"
"45.00000","3.75023","4099.12"
"45.10000","3.75859","4105.36"
"45.20000","3.76726","4111.8"
"45.30000","3.77553","4116.57"
"45.40000","3.78349","4121.54"
"45.50000","3.79145","4126.62"
"45.60000","3.80002","4131.75"
"45.70000","3.80879","4138.42"
"45.80000","3.81706","4144.01"
"45.90000","3.82522","4149.36"
"46.00000","3.83338","4154.12"
"46.10000","3.84165","4159.09"
"46.20000","3.84971","4164.33"
"46.30000","3.85838","4169.99"
"46.40000","3.86715","4175.48"
"46.50000","3.87552","4180.45"
"46.60000","3.88358","4184.8"
"46.70000","3.89164","4189.17"
"46.80000","3.90011","4194.95"
"46.90000","3.90837","4198.63"
"47.00000","3.91684","4203.34"
"47.10000","3.92561","4208.22"
"47.20000","3.93398","4213.11"
"47.30000","3.94224","4216.89"
"47.40000","3.95030","4220.83"
"47.50000","3.95847","4224.81"
"47.60000","3.96683","4229.5"
"47.70000","3.97510","4232.14"
"47.80000","3.98367","4236.53"
"47.90000","3.99203","4239.88"
"48.00000","4.00040","4243.95"
"48.10000","4.00866","4245.69"
"48.20000","4.01673","4248.42"
"48.30000","4.02499","4251.11"
"48.40000","4.03366","4253.66"
"48.50000","4.04263","4256.9"
"48.60000","4.05080","4258.6"
"48.70000","4.05876","4259.28"
"48.80000","4.06662","4259.72"
"48.90000","4.07499","4261.36"
"49.00000","4.08335","4260.37"
"49.10000","4.09192","4261.3"
"49.20000","4.10039","4261.14"
"49.30000","4.10865","4260.4"
"49.40000","4.11692","4260.06"
"49.50000","4.12498","4257.8"
"49.60000","4.13324","4256.42"
"49.70000","4.14171","4254.17"
"49.80000","4.15028","4252.71"
"49.90000","4.15875","4249.14"
"50.00000","4.16721","4246.59"
"50.10000","4.17558","4242.71"
"50.20000","4.18334","4237.84"
"50.30000","4.19150","4233.54"
"50.40000","4.20007","4228.33"
"50.50000","4.20894","4223.83"
"50.60000","4.21721","4219.75"
"50.70000","4.22547","4213.2"
"50.80000","4.23374","4208.29"
"50.90000","4.24190","4201.47"
"51.00000","4.25006","4193.71"
"51.10000","4.25853","4187.97"
"51.20000","4.26710","4181.72"
"51.30000","4.27526","4174.68"
"51.40000","4.28333","4166.67"
"51.50000","4.29169","4159.22"
"51.60000","4.30006","4151.83"
"51.70000","4.30832","4143.7"
"51.80000","4.31699","4135.55"
"51.90000","4.32526","4126.93"
"52.00000","4.33372","4119.06"
"52.10000","4.34219","4110.47"
"52.20000","4.35025","4101.07"
"52.30000","4.35832","4090.81"
"52.40000","4.36658","4081.02"
"52.50000","4.37535","4071.57"
"52.60000","4.38392","4062.09"
"52.70000","4.39239","4050.94"
"52.80000","4.40055","4040.51"
"52.90000","4.40841","4028.14"
"53.00000","4.41657","4016.77"
"53.10000","4.42524","4005.32"
"53.20000","4.43381","3993.06"
"53.30000","4.44228","3980.04"
"53.40000","4.45064","3966.71"
"53.50000","4.45871","3951.02"
"53.60000","4.46687","3933.74"
"53.70000","4.47514","3914.35"
"53.80000","4.48350","3890.9"
"53.90000","4.49187","3859.34"
"53.99600","4.50023","3484.64"
"54.00000","4.50054","3124.52"
"54.00400","4.50094","2712.29"
"54.00800","4.50144","2272.44"