File: Data_Processing/Tensile-Data/Sequence_45.csv
General : Start date,"10/29/2024 10:54 AM"
General : End date,"10/29/2024 10:55 AM"
Specimen notes : Specimen note 1,"Day 2, green, 215, batch 13, seq 45"
Test : Rate 1,"5.00000",mm/min

Time,Extension,Load
(s),(mm),(N)
"0.00000","0.00010","0.16773"
"0.10000","0.00222","-0.03364"
"0.20000","0.01260","14.33385"
"0.30000","0.02560","39.05719"
"0.40000","0.03457","55.95782"
"0.50000","0.04294","69.16256"
"0.60000","0.05171","83.85130"
"0.70000","0.06048","98.35826"
"0.80000","0.06904","112.62"
"0.90000","0.07731","126.788"
"1.00000","0.08567","140.085"
"1.10000","0.09394","152.313"
"1.20000","0.10220","165.739"
"1.30000","0.11067","180.166"
"1.40000","0.11924","194.009"
"1.50000","0.12771","206.614"
"1.60000","0.13597","221.037"
"1.70000","0.14424","232.911"
"1.80000","0.15260","246.339"
"1.90000","0.16067","259.184"
"2.00000","0.16883","271.661"
"2.10000","0.17740","285.06"
"2.20000","0.18596","298.641"
"2.30000","0.19443","311.16"
"2.40000","0.20249","324.23"
"2.50000","0.21056","336.616"
"2.60000","0.21882","348.134"
"2.70000","0.22739","363.04"
"2.80000","0.23606","375.062"
"2.90000","0.24442","387.733"
"3.00000","0.25279","401.584"
"3.10000","0.26095","413.55"
"3.20000","0.26882","424.737"
"3.30000","0.27728","437.659"
"3.40000","0.28575","448.809"
"3.50000","0.29402","461.314"
"3.60000","0.30238","474.035"
"3.70000","0.31085","485.183"
"3.80000","0.31891","497.295"
"3.90000","0.32728","507.776"
"4.00000","0.33554","520.278"
"4.10000","0.34401","532.512"
"4.20000","0.35237","544.808"
"4.30000","0.36064","555.912"
"4.40000","0.36921","567.057"
"4.50000","0.37777","579.185"
"4.60000","0.38564","589.878"
"4.70000","0.39390","601.526"
"4.80000","0.40257","612.767"
"4.90000","0.41124","624.957"
"5.00000","0.41950","635.479"
"5.10000","0.42777","645.686"
"5.20000","0.43593","656.757"
"5.30000","0.44390","665.462"
"5.40000","0.45226","676.458"
"5.50000","0.46093","687.496"
"5.60000","0.46930","698.05"
"5.70000","0.47766","707.98"
"5.80000","0.48583","718.186"
"5.90000","0.49389","728.356"
"6.00000","0.50205","738.965"
"6.10000","0.51052","749.44"
"6.20000","0.51919","760.353"
"6.30000","0.52755","771.422"
"6.40000","0.53592","780.81"
"6.50000","0.54408","791.176"
"6.60000","0.55225","800.114"
"6.70000","0.56041","810.886"
"6.80000","0.56888","819.818"
"6.90000","0.57745","830.519"
"7.00000","0.58601","839.594"
"7.10000","0.59418","849.45"
"7.20000","0.60244","859.618"
"7.30000","0.61051","869.584"
"7.40000","0.61887","878.993"
"7.50000","0.62744","888.493"
"7.60000","0.63611","899.755"
"7.70000","0.64437","908.559"
"7.80000","0.65264","918.414"
"7.90000","0.66080","926.871"
"8.00000","0.66877","936.589"
"8.10000","0.67723","945.617"
"8.20000","0.68590","955.747"
"8.30000","0.69396","965.045"
"8.40000","0.70253","975.31"
"8.50000","0.71100","985.023"
"8.60000","0.71896","993.447"
"8.70000","0.72713","1001.64"
"8.80000","0.73539","1011.75"
"8.90000","0.74416","1022.44"
"9.00000","0.75242","1030.2"
"9.10000","0.76079","1039.08"
"9.20000","0.76906","1049.04"
"9.30000","0.77702","1057.73"
"9.40000","0.78508","1066.05"
"9.50000","0.79375","1075.07"
"9.60000","0.80252","1084.1"
"9.70000","0.81088","1093.28"
"9.80000","0.81895","1100.75"
"9.90000","0.82731","1109.44"
"10.00000","0.83588","1118.98"
"10.10000","0.84415","1127.97"
"10.20000","0.85251","1136.75"
"10.30000","0.86118","1144.85"
"10.40000","0.86935","1153.23"
"10.50000","0.87771","1161.34"
"10.60000","0.88577","1169.65"
"10.70000","0.89384","1176.01"
"10.80000","0.90230","1183.98"
"10.90000","0.91097","1193.24"
"11.00000","0.91934","1200.69"
"11.10000","0.92770","1209.38"
"11.20000","0.93597","1217.65"
"11.30000","0.94413","1224.96"
"11.40000","0.95220","1232.55"
"11.50000","0.96046","1239.94"
"11.60000","0.96903","1247.5"
"11.70000","0.97770","1254.73"
"11.80000","0.98606","1262.09"
"11.90000","0.99403","1270.07"
"12.00000","1.00199","1277.43"
"12.10000","1.01036","1285.27"
"12.20000","1.01882","1292.18"
"12.30000","1.02759","1299.78"
"12.40000","1.03606","1306.14"
"12.50000","1.04432","1314.01"
"12.60000","1.05249","1321.3"
"12.70000","1.06055","1329.45"
"12.80000","1.06871","1336.01"
"12.90000","1.07728","1344.02"
"13.00000","1.08565","1352.38"
"13.10000","1.09422","1360.43"
"13.20000","1.10278","1368.58"
"13.30000","1.11105","1375.22"
"13.40000","1.11901","1382.98"
"13.50000","1.12728","1391.42"
"13.60000","1.13574","1398.82"
"13.70000","1.14441","1406.58"
"13.80000","1.15247","1414.08"
"13.90000","1.16094","1421.22"
"14.00000","1.16931","1429.13"
"14.10000","1.17717","1437.09"
"14.20000","1.18543","1444.25"
"14.30000","1.19420","1452.42"
"14.40000","1.20277","1460.1"
"14.50000","1.21083","1468.38"
"14.60000","1.21910","1475.8"
"14.70000","1.22726","1483.36"
"14.80000","1.23543","1490.22"
"14.90000","1.24369","1497.52"
"15.00000","1.25236","1505.99"
"15.10000","1.26083","1513.04"
"15.20000","1.26899","1520.71"
"15.30000","1.27736","1527.85"
"15.40000","1.28552","1534.52"
"15.50000","1.29399","1541.96"
"15.60000","1.30225","1549.94"
"15.70000","1.31082","1557.9"
"15.80000","1.31939","1565.08"
"15.90000","1.32775","1572.37"
"16.00000","1.33612","1580.36"
"16.10000","1.34408","1587.46"
"16.20000","1.35215","1594.06"
"16.30000","1.36041","1601.41"
"16.40000","1.36918","1609.45"
"16.50000","1.37795","1616.47"
"16.60000","1.38601","1623.51"
"16.70000","1.39408","1630.76"
"16.80000","1.40224","1637.23"
"16.90000","1.41061","1645.23"
"17.00000","1.41897","1652.21"
"17.10000","1.42754","1659.86"
"17.20000","1.43601","1667.01"
"17.30000","1.44437","1674.65"
"17.40000","1.45223","1682.16"
"17.50000","1.46040","1688.19"
"17.60000","1.46897","1695.73"
"17.70000","1.47743","1702.71"
"17.80000","1.48560","1708.96"
"17.90000","1.49416","1716.59"
"18.00000","1.50273","1723.54"
"18.10000","1.51100","1729.64"
"18.20000","1.51866","1736.06"
"18.30000","1.52702","1743"
"18.40000","1.53579","1751.63"
"18.50000","1.54436","1758.34"
"18.60000","1.55273","1766.13"
"18.70000","1.56089","1773.68"
"18.80000","1.56916","1780.53"
"18.90000","1.57732","1788.14"
"19.00000","1.58548","1794.83"
"19.10000","1.59425","1802.77"
"19.20000","1.60282","1810.02"
"19.30000","1.61098","1816.48"
"19.40000","1.61915","1823.62"
"19.50000","1.62751","1831.37"
"19.60000","1.63558","1837.69"
"19.70000","1.64394","1845.58"
"19.80000","1.65251","1852.85"
"19.90000","1.66098","1860.01"
"20.00000","1.66944","1865.82"
"20.10000","1.67741","1873.24"
"20.20000","1.68537","1878.9"
"20.30000","1.69374","1886.51"
"20.40000","1.70220","1894.47"
"20.50000","1.71077","1901.62"
"20.60000","1.71944","1908.31"
"20.70000","1.72780","1915.04"
"20.80000","1.73597","1921.72"
"20.90000","1.74383","1927.84"
"21.00000","1.75210","1935.98"
"21.10000","1.76086","1942.57"
"21.20000","1.76943","1949.94"
"21.30000","1.77770","1956.24"
"21.40000","1.78596","1963.42"
"21.50000","1.79403","1969.92"
"21.60000","1.80219","1976.4"
"21.70000","1.81056","1983.19"
"21.80000","1.81912","1990.59"
"21.90000","1.82769","1996.4"
"22.00000","1.83626","2003.53"
"22.10000","1.84432","2010.66"
"22.20000","1.85239","2016.13"
"22.30000","1.86055","2024.91"
"22.40000","1.86892","2031.47"
"22.50000","1.87728","2038.79"
"22.60000","1.88585","2045.41"
"22.70000","1.89442","2052.03"
"22.80000","1.90258","2059.05"
"22.90000","1.91054","2065.83"
"23.00000","1.91871","2072.35"
"23.10000","1.92728","2079.59"
"23.20000","1.93584","2087.1"
"23.30000","1.94431","2094.1"
"23.40000","1.95257","2100.9"
"23.50000","1.96094","2107.66"
"23.60000","1.96880","2114.93"
"23.70000","1.97697","2121.03"
"23.80000","1.98563","2128.79"
"23.90000","1.99440","2134.84"
"24.00000","2.00277","2142.55"
"24.10000","2.01083","2149.44"
"24.20000","2.01930","2156.36"
"24.30000","2.02746","2163.19"
"24.40000","2.03573","2170.22"
"24.50000","2.04430","2177.87"
"24.60000","2.05276","2185.2"
"24.70000","2.06103","2191.71"
"24.80000","2.06919","2199.5"
"24.90000","2.07716","2205.95"
"25.00000","2.08552","2213.07"
"25.10000","2.09369","2220.56"
"25.20000","2.10235","2227.54"
"25.30000","2.11082","2234.72"
"25.40000","2.11929","2241.36"
"25.50000","2.12755","2248.91"
"25.60000","2.13562","2256.47"
"25.70000","2.14378","2263.53"
"25.80000","2.15215","2269.5"
"25.90000","2.16071","2277.42"
"26.00000","2.16908","2284.92"
"26.10000","2.17755","2291.79"
"26.20000","2.18561","2299.15"
"26.30000","2.19387","2305.69"
"26.40000","2.20224","2312.96"
"26.50000","2.21071","2320.24"
"26.60000","2.21927","2327.97"
"26.70000","2.22764","2334.62"
"26.80000","2.23621","2341.4"
"26.90000","2.24437","2348.91"
"27.00000","2.25223","2355.97"
"27.10000","2.26070","2362.09"
"27.20000","2.26927","2370.27"
"27.30000","2.27753","2377.74"
"27.40000","2.28570","2385.62"
"27.50000","2.29426","2392.68"
"27.60000","2.30273","2400.12"
"27.70000","2.31059","2406.26"
"27.80000","2.31876","2412.91"
"27.90000","2.32733","2421.13"
"28.00000","2.33589","2428.44"
"28.10000","2.34406","2435.84"
"28.20000","2.35242","2443.36"
"28.30000","2.36079","2450.6"
"28.40000","2.36875","2455.97"
"28.50000","2.37712","2464.14"
"28.60000","2.38579","2471.13"
"28.70000","2.39435","2478.58"
"28.80000","2.40252","2486.19"
"28.90000","2.41068","2493.97"
"29.00000","2.41905","2500.34"
"29.10000","2.42741","2508.08"
"29.20000","2.43568","2515.16"
"29.30000","2.44414","2522.4"
"29.40000","2.45251","2529.1"
"29.50000","2.46098","2536.57"
"29.60000","2.46924","2543.85"
"29.70000","2.47731","2551.07"
"29.80000","2.48557","2557.95"
"29.90000","2.49394","2565.49"
"30.00000","2.50240","2573.67"
"30.10000","2.51097","2580.47"
"30.20000","2.51934","2587.55"
"30.30000","2.52760","2594.89"
"30.40000","2.53577","2601.87"
"30.50000","2.54373","2609.58"
"30.60000","2.55230","2616.9"
"30.70000","2.56086","2624.34"
"30.80000","2.56933","2631.25"
"30.90000","2.57760","2638.06"
"31.00000","2.58556","2645.35"
"31.10000","2.59382","2652.04"
"31.20000","2.60219","2660.08"
"31.30000","2.61066","2667.03"
"31.40000","2.61912","2675"
"31.50000","2.62739","2682.64"
"31.60000","2.63596","2689.82"
"31.70000","2.64422","2697.05"
"31.80000","2.65228","2704"
"31.90000","2.66065","2711.71"
"32.00000","2.66902","2719.22"
"32.10000","2.67748","2726.6"
"32.20000","2.68615","2733.53"
"32.30000","2.69462","2741.6"
"32.40000","2.70258","2747.63"
"32.50000","2.71054","2754.64"
"32.60000","2.71901","2761.61"
"32.70000","2.72778","2769.54"
"32.80000","2.73604","2776.37"
"32.90000","2.74431","2783.42"
"33.00000","2.75247","2791.21"
"33.10000","2.76084","2798.46"
"33.20000","2.76890","2805.75"
"33.30000","2.77717","2812.8"
"33.40000","2.78604","2820.58"
"33.50000","2.79440","2827.19"
"33.60000","2.80247","2835.62"
"33.70000","2.81053","2841.4"
"33.80000","2.81910","2849.45"
"33.90000","2.82706","2855.76"
"34.00000","2.83553","2863.52"
"34.10000","2.84409","2872.47"
"34.20000","2.85246","2878.15"
"34.30000","2.86072","2884.36"
"34.40000","2.86889","2891.89"
"34.50000","2.87715","2898.57"
"34.60000","2.88552","2906.48"
"34.70000","2.89389","2913.41"
"34.80000","2.90255","2921.78"
"34.90000","2.91112","2928.01"
"35.00000","2.91939","2935.15"
"35.10000","2.92735","2941.36"
"35.20000","2.93541","2949.42"
"35.30000","2.94378","2955.91"
"35.40000","2.95255","2963.89"
"35.50000","2.96122","2970.93"
"35.60000","2.96948","2977.28"
"35.70000","2.97744","2984.89"
"35.80000","2.98551","2992.08"
"35.90000","2.99387","2999.47"
"36.00000","3.00234","3006.98"
"36.10000","3.01091","3014.38"
"36.20000","3.01937","3020.69"
"36.30000","3.02774","3027.88"
"36.40000","3.03601","3035.59"
"36.50000","3.04387","3041.57"
"36.60000","3.05193","3048.62"
"36.70000","3.06060","3056.64"
"36.80000","3.06907","3064.47"
"36.90000","3.07713","3071.33"
"37.00000","3.08570","3077.37"
"37.10000","3.09416","3085.9"
"37.20000","3.10223","3092.78"
"37.30000","3.11029","3098.6"
"37.40000","3.11906","3107.22"
"37.50000","3.12773","3114.61"
"37.60000","3.13599","3121.41"
"37.70000","3.14416","3127.85"
"37.80000","3.15262","3135.73"
"37.90000","3.16079","3142.68"
"38.00000","3.16885","3149.68"
"38.10000","3.17752","3155.95"
"38.20000","3.18619","3163.16"
"38.30000","3.19425","3169.38"
"38.40000","3.20231","3176.56"
"38.50000","3.21068","3183.8"
"38.60000","3.21905","3190.56"
"38.70000","3.22751","3197.58"
"38.80000","3.23588","3204.95"
"38.90000","3.24424","3210.88"
"39.00000","3.25261","3217.91"
"39.10000","3.26077","3225.65"
"39.20000","3.26894","3232.88"
"39.30000","3.27720","3239.75"
"39.40000","3.28527","3246.03"
"39.50000","3.29373","3252.33"
"39.60000","3.30260","3260.19"
"39.70000","3.31097","3267.62"
"39.80000","3.31924","3273.98"
"39.90000","3.32740","3282.65"
"40.00000","3.33546","3288.07"
"40.10000","3.34383","3295.21"
"40.20000","3.35260","3302.58"
"40.30000","3.36117","3309.36"
"40.40000","3.36923","3315.26"
"40.50000","3.37739","3323.87"
"40.60000","3.38556","3330.04"
"40.70000","3.39392","3336.37"
"40.80000","3.40239","3344.32"
"40.90000","3.41106","3351.12"
"41.00000","3.41922","3357.29"
"41.10000","3.42759","3364.74"
"41.20000","3.43585","3370.95"
"41.30000","3.44392","3377.84"
"41.40000","3.45238","3384.73"
"41.50000","3.46075","3391.87"
"41.60000","3.46881","3397.84"
"41.70000","3.47748","3404.23"
"41.80000","3.48615","3411.76"
"41.90000","3.49441","3418.38"
"42.00000","3.50218","3424.5"
"42.10000","3.51044","3432.03"
"42.20000","3.51921","3439.17"
"42.30000","3.52758","3445.81"
"42.40000","3.53584","3451.83"
"42.50000","3.54431","3459.48"
"42.60000","3.55247","3464.95"
"42.70000","3.56043","3470.85"
"42.80000","3.56880","3478.44"
"42.90000","3.57767","3485.59"
"43.00000","3.58614","3493.54"
"43.10000","3.59420","3499.5"
"43.20000","3.60226","3505.78"
"43.30000","3.61073","3513.44"
"43.40000","3.61900","3519.7"
"43.50000","3.62726","3526.19"
"43.60000","3.63603","3532.91"
"43.70000","3.64429","3539.5"
"43.80000","3.65266","3545.83"
"43.90000","3.66093","3552.61"
"44.00000","3.66889","3558.34"
"44.10000","3.67715","3565.03"
"44.20000","3.68562","3571.52"
"44.30000","3.69439","3578.57"
"44.40000","3.70286","3586.19"
"44.50000","3.71112","3591.36"
"44.60000","3.71918","3598.48"
"44.70000","3.72715","3605.2"
"44.80000","3.73521","3610.49"
"44.90000","3.74388","3617.87"
"45.00000","3.75265","3624.59"
"45.10000","3.76122","3631.96"
"45.20000","3.76938","3637.14"
"45.30000","3.77744","3643.79"
"45.40000","3.78551","3650.27"
"45.50000","3.79387","3657.08"
"45.60000","3.80244","3662.86"
"45.70000","3.81091","3669.61"
"45.80000","3.81917","3677.2"
"45.90000","3.82764","3683.6"
"46.00000","3.83570","3688.94"
"46.10000","3.84397","3695.73"
"46.20000","3.85233","3702.22"
"46.30000","3.86070","3707.97"
"46.40000","3.86906","3714.19"
"46.50000","3.87763","3720.74"
"46.60000","3.88600","3727.19"
"46.70000","3.89406","3732.55"
"46.80000","3.90202","3738.85"
"46.90000","3.91049","3745.29"
"47.00000","3.91926","3751.54"
"47.10000","3.92763","3756.97"
"47.20000","3.93589","3763.18"
"47.30000","3.94405","3768.51"
"47.40000","3.95242","3775.44"
"47.50000","3.96028","3781.45"
"47.60000","3.96885","3786.03"
"47.70000","3.97762","3792.68"
"47.80000","3.98609","3798.82"
"47.90000","3.99415","3804.16"
"48.00000","4.00231","3810.54"
"48.10000","4.01068","3816.91"
"48.20000","4.01894","3822.08"
"48.30000","4.02761","3828.46"
"48.40000","4.03608","3833.54"
"48.50000","4.04434","3839.19"
"48.60000","4.05271","3844.65"
"48.70000","4.06077","3850.22"
"48.80000","4.06894","3855.56"
"48.90000","4.07740","3860.86"
"49.00000","4.08567","3866.26"
"49.10000","4.09424","3872.66"
"49.20000","4.10270","3877.63"
"49.30000","4.11107","3882.66"
"49.40000","4.11923","3887.6"
"49.50000","4.12720","3893.2"
"49.60000","4.13546","3898.43"
"49.70000","4.14413","3904.15"
"49.80000","4.15300","3909.56"
"49.90000","4.16116","3913.78"
"50.00000","4.16903","3919.34"
"50.10000","4.17709","3923.78"
"50.20000","4.18556","3928.01"
"50.30000","4.19392","3933.71"
"50.40000","4.20249","3937.59"
"50.50000","4.21096","3943.03"
"50.60000","4.21922","3947.39"
"50.70000","4.22739","3952.05"
"50.80000","4.23555","3956.58"
"50.90000","4.24382","3960.2"
"51.00000","4.25228","3964.7"
"51.10000","4.26055","3969.23"
"51.20000","4.26911","3973.96"
"51.30000","4.27768","3977.62"
"51.40000","4.28605","3981"
"51.50000","4.29401","3984.76"
"51.60000","4.30217","3988.69"
"51.70000","4.31064","3992.09"
"51.80000","4.31941","3995.8"
"51.90000","4.32768","3998.95"
"52.00000","4.33604","4002.08"
"52.10000","4.34431","4004.64"
"52.20000","4.35247","4008.01"
"52.30000","4.36063","4009.8"
"52.40000","4.36900","4012.29"
"52.50000","4.37757","4014.77"
"52.60000","4.38593","4016.52"
"52.70000","4.39400","4018.43"
"52.80000","4.40216","4020.01"
"52.90000","4.41053","4021.1"
"53.00000","4.41889","4022.9"
"53.10000","4.42746","4024.34"
"53.20000","4.43583","4024.92"
"53.30000","4.44419","4025.52"
"53.40000","4.45246","4025.83"
"53.50000","4.46062","4025.46"
"53.60000","4.46889","4025.05"
"53.70000","4.47725","4024.78"
"53.80000","4.48572","4023.13"
"53.90000","4.49429","4024.67"
"54.00000","4.50285","4022.57"
"54.10000","4.51112","4020.66"
"54.20000","4.51898","4018.35"
"54.30000","4.52705","4015.64"
"54.40000","4.53551","4012.7"
"54.50000","4.54428","4009.61"
"54.60000","4.55285","4005.94"
"54.70000","4.56111","4001.83"
"54.80000","4.56908","3997.36"
"54.90000","4.57744","3991.64"
"55.00000","4.58571","3985.8"
"55.10000","4.59397","3978.9"
"55.20000","4.60244","3971.57"
"55.30000","4.61111","3964.48"
"55.40000","4.61947","3954.61"
"55.50000","4.62744","3943.33"
"55.60000","4.63550","3929.74"
"55.70000","4.64387","3913.76"
"55.80000","4.65233","3892.4"
"55.90000","4.66060","3859.27"
"56.00000","4.66906","3780.24"
"56.02000","4.67078","3520.02"
"56.02400","4.67118","3187.41"
"56.02800","4.67158","2794.18"
"56.03200","4.67209","2362.51"
"56.03400","4.67229","2149.05"