File: Data_Processing/Tensile-Data/Sequence_21.csv
General : Start date,"10/29/2024 9:53 AM"
General : End date,"10/29/2024 9:54 AM"
Specimen notes : Specimen note 1,"Day 2, black, 215, batch 9, seq 21"
Test : Rate 1,"5.00000",mm/min

Time,Extension,Load
(s),(mm),(N)
"0.00000","-0.00020","2.09135"
"0.10000","0.00101","2.20574"
"0.20000","0.01068","13.23072"
"0.30000","0.02379","40.41041"
"0.40000","0.03246","57.10105"
"0.50000","0.04032","70.29717"
"0.60000","0.04899","85.59314"
"0.70000","0.05775","101.532"
"0.80000","0.06662","115.639"
"0.90000","0.07519","130.842"
"1.00000","0.08346","143.789"
"1.10000","0.09152","157.2"
"1.20000","0.09968","170.843"
"1.30000","0.10805","185.895"
"1.40000","0.11672","199.894"
"1.50000","0.12529","213.645"
"1.60000","0.13385","228.213"
"1.70000","0.14192","242.33"
"1.80000","0.14998","255.475"
"1.90000","0.15825","269.261"
"2.00000","0.16681","283.301"
"2.10000","0.17528","298.323"
"2.20000","0.18375","313.559"
"2.30000","0.19221","327.81"
"2.40000","0.20028","341.338"
"2.50000","0.20834","355.172"
"2.60000","0.21640","368.598"
"2.70000","0.22517","384.407"
"2.80000","0.23344","399.182"
"2.90000","0.24180","412.382"
"3.00000","0.25037","426.592"
"3.10000","0.25864","441.403"
"3.20000","0.26660","453.359"
"3.30000","0.27486","468.609"
"3.40000","0.28353","481.403"
"3.50000","0.29190","496.581"
"3.60000","0.30026","509.999"
"3.70000","0.30853","523.797"
"3.80000","0.31659","537.37"
"3.90000","0.32466","549.955"
"4.00000","0.33292","564.899"
"4.10000","0.34179","578.577"
"4.20000","0.35026","593.025"
"4.30000","0.35872","607.696"
"4.40000","0.36699","621.619"
"4.50000","0.37505","634.347"
"4.60000","0.38312","649.265"
"4.70000","0.39148","661.709"
"4.80000","0.40025","674.925"
"4.90000","0.40872","688.562"
"5.00000","0.41698","703.007"
"5.10000","0.42505","715.93"
"5.20000","0.43321","729.082"
"5.30000","0.44148","743.706"
"5.40000","0.44994","756.968"
"5.50000","0.45841","771.233"
"5.60000","0.46698","785.056"
"5.70000","0.47514","797.831"
"5.80000","0.48351","811.509"
"5.90000","0.49167","824.769"
"6.00000","0.49984","837.583"
"6.10000","0.50830","850.559"
"6.20000","0.51687","864.046"
"6.30000","0.52534","877.875"
"6.40000","0.53350","890.466"
"6.50000","0.54156","903.457"
"6.60000","0.54983","917.396"
"6.70000","0.55820","931.699"
"6.80000","0.56676","945.985"
"6.90000","0.57513","958.858"
"7.00000","0.58370","972.194"
"7.10000","0.59196","985.713"
"7.20000","0.59982","999.145"
"7.30000","0.60799","1011.59"
"7.40000","0.61666","1024.35"
"7.50000","0.62512","1038.69"
"7.60000","0.63349","1052.18"
"7.70000","0.64185","1065.05"
"7.80000","0.65022","1078.14"
"7.90000","0.65818","1090.24"
"8.00000","0.66655","1103.09"
"8.10000","0.67481","1116.26"
"8.20000","0.68348","1129.48"
"8.30000","0.69195","1143.01"
"8.40000","0.70011","1155.82"
"8.50000","0.70858","1169.02"
"8.60000","0.71654","1182.37"
"8.70000","0.72471","1194.76"
"8.80000","0.73327","1207.93"
"8.90000","0.74204","1221.19"
"9.00000","0.75031","1233.99"
"9.10000","0.75857","1246.59"
"9.20000","0.76674","1259.13"
"9.30000","0.77490","1272.4"
"9.40000","0.78317","1284.39"
"9.50000","0.79163","1297.28"
"9.60000","0.80020","1309.57"
"9.70000","0.80857","1322.42"
"9.80000","0.81683","1334.94"
"9.90000","0.82490","1347.38"
"10.00000","0.83306","1358.95"
"10.10000","0.84143","1370.62"
"10.20000","0.84989","1384.19"
"10.30000","0.85856","1396.7"
"10.40000","0.86683","1408.99"
"10.50000","0.87509","1421.26"
"10.60000","0.88336","1432.67"
"10.70000","0.89142","1445.29"
"10.80000","0.89978","1457.97"
"10.90000","0.90845","1469.82"
"11.00000","0.91712","1482.21"
"11.10000","0.92539","1494.7"
"11.20000","0.93345","1506.51"
"11.30000","0.94151","1517.8"
"11.40000","0.94988","1529.91"
"11.50000","0.95835","1541.87"
"11.60000","0.96671","1554.24"
"11.70000","0.97528","1567.3"
"11.80000","0.98344","1579.04"
"11.90000","0.99191","1590.86"
"12.00000","0.99997","1603.04"
"12.10000","1.00824","1614.48"
"12.20000","1.01671","1627.43"
"12.30000","1.02477","1638.04"
"12.40000","1.03283","1649.18"
"12.50000","1.04140","1661.82"
"12.60000","1.04987","1673.93"
"12.70000","1.05793","1685.07"
"12.80000","1.06620","1695.95"
"12.90000","1.07486","1708.81"
"13.00000","1.08333","1719.88"
"13.10000","1.09170","1730.98"
"13.20000","1.10016","1742.08"
"13.30000","1.10843","1753.21"
"13.40000","1.11639","1764.28"
"13.50000","1.12466","1776.15"
"13.60000","1.13342","1787.71"
"13.70000","1.14199","1798.94"
"13.80000","1.14995","1811.66"
"13.90000","1.15822","1822.74"
"14.00000","1.16669","1833.66"
"14.10000","1.17505","1845.57"
"14.20000","1.18332","1856.63"
"14.30000","1.19188","1868.24"
"14.40000","1.20025","1879.85"
"14.50000","1.20852","1891.44"
"14.60000","1.21678","1902.28"
"14.70000","1.22505","1912.62"
"14.80000","1.23311","1922.93"
"14.90000","1.24148","1933.72"
"15.00000","1.24984","1944.87"
"15.10000","1.25851","1956.27"
"15.20000","1.26708","1967.39"
"15.30000","1.27534","1978.46"
"15.40000","1.28341","1989.12"
"15.50000","1.29147","1999.74"
"15.60000","1.29983","2010.71"
"15.70000","1.30850","2021.97"
"15.80000","1.31697","2033.77"
"15.90000","1.32534","2044.54"
"16.00000","1.33320","2054.94"
"16.10000","1.34146","2064.52"
"16.20000","1.34973","2074.27"
"16.30000","1.35840","2085.8"
"16.40000","1.36676","2096.15"
"16.50000","1.37523","2107.41"
"16.60000","1.38349","2117.37"
"16.70000","1.39156","2128.23"
"16.80000","1.39952","2138.54"
"16.90000","1.40819","2149.09"
"17.00000","1.41686","2160.45"
"17.10000","1.42512","2171.88"
"17.20000","1.43369","2182.3"
"17.30000","1.44216","2192.43"
"17.40000","1.45022","2201.8"
"17.50000","1.45798","2212.01"
"17.60000","1.46635","2222.4"
"17.70000","1.47511","2232.71"
"17.80000","1.48348","2242.68"
"17.90000","1.49185","2252.42"
"18.00000","1.50031","2262.99"
"18.10000","1.50828","2272.69"
"18.20000","1.51634","2282.6"
"18.30000","1.52481","2291.9"
"18.40000","1.53368","2302.92"
"18.50000","1.54204","2312.85"
"18.60000","1.55011","2322.59"
"18.70000","1.55827","2332.27"
"18.80000","1.56664","2341.9"
"18.90000","1.57460","2351.63"
"19.00000","1.58306","2360.53"
"19.10000","1.59163","2370.69"
"19.20000","1.60000","2380.31"
"19.30000","1.60846","2389.71"
"19.40000","1.61663","2399.71"
"19.50000","1.62479","2409.69"
"19.60000","1.63306","2419.35"
"19.70000","1.64173","2429.34"
"19.80000","1.65029","2439.27"
"19.90000","1.65876","2449.42"
"20.00000","1.66723","2459.99"
"20.10000","1.67519","2468.26"
"20.20000","1.68305","2477.55"
"20.30000","1.69152","2487.02"
"20.40000","1.70009","2496.02"
"20.50000","1.70875","2505.78"
"20.60000","1.71702","2514.91"
"20.70000","1.72508","2524.01"
"20.80000","1.73315","2533.27"
"20.90000","1.74141","2541.53"
"21.00000","1.74988","2550.62"
"21.10000","1.75834","2559.5"
"21.20000","1.76681","2568.79"
"21.30000","1.77528","2577.84"
"21.40000","1.78344","2587.17"
"21.50000","1.79141","2595.58"
"21.60000","1.79967","2603.71"
"21.70000","1.80834","2613.39"
"21.80000","1.81681","2621.04"
"21.90000","1.82517","2629.84"
"22.00000","1.83374","2639.3"
"22.10000","1.84200","2647.22"
"22.20000","1.84987","2655.53"
"22.30000","1.85793","2663.12"
"22.40000","1.86650","2672"
"22.50000","1.87516","2681.37"
"22.60000","1.88343","2690.16"
"22.70000","1.89180","2697.77"
"22.80000","1.90006","2706.63"
"22.90000","1.90812","2715.78"
"23.00000","1.91639","2723.85"
"23.10000","1.92506","2732.12"
"23.20000","1.93383","2741.54"
"23.30000","1.94199","2749.4"
"23.40000","1.94995","2757.52"
"23.50000","1.95822","2765.55"
"23.60000","1.96648","2773.34"
"23.70000","1.97485","2781.2"
"23.80000","1.98332","2789.44"
"23.90000","1.99188","2798.45"
"24.00000","2.00025","2806.64"
"24.10000","2.00841","2814.74"
"24.20000","2.01658","2822.88"
"24.30000","2.02484","2831.28"
"24.40000","2.03311","2839.11"
"24.50000","2.04157","2848.45"
"24.60000","2.05014","2857.15"
"24.70000","2.05871","2866.21"
"24.80000","2.06697","2874.24"
"24.90000","2.07494","2881.02"
"25.00000","2.08300","2888.47"
"25.10000","2.09137","2897.67"
"25.20000","2.10024","2906.15"
"25.30000","2.10880","2914.29"
"25.40000","2.11697","2922.64"
"25.50000","2.12503","2930.85"
"25.60000","2.13310","2938.53"
"25.70000","2.14136","2945.97"
"25.80000","2.14983","2953.58"
"25.90000","2.15839","2962.5"
"26.00000","2.16676","2970.73"
"26.10000","2.17523","2978.3"
"26.20000","2.18349","2986.96"
"26.30000","2.19156","2994.21"
"26.40000","2.19982","3001.25"
"26.50000","2.20829","3010.04"
"26.60000","2.21655","3018.32"
"26.70000","2.22512","3026.81"
"26.80000","2.23379","3035"
"26.90000","2.24205","3041.71"
"27.00000","2.24992","3048.71"
"27.10000","2.25808","3056.56"
"27.20000","2.26675","3064.72"
"27.30000","2.27521","3073.66"
"27.40000","2.28338","3080.75"
"27.50000","2.29195","3089.11"
"27.60000","2.30001","3097.03"
"27.70000","2.30797","3103.56"
"27.80000","2.31634","3111.8"
"27.90000","2.32511","3120"
"28.00000","2.33378","3129.11"
"28.10000","2.34184","3136.49"
"28.20000","2.35000","3144.29"
"28.30000","2.35827","3150.65"
"28.40000","2.36653","3158.51"
"28.50000","2.37490","3165.83"
"28.60000","2.38337","3174.42"
"28.70000","2.39183","3181.11"
"28.80000","2.40040","3189.76"
"28.90000","2.40846","3197.08"
"29.00000","2.41643","3203.65"
"29.10000","2.42479","3211.34"
"29.20000","2.43306","3219.16"
"29.30000","2.44173","3227.42"
"29.40000","2.45039","3234.86"
"29.50000","2.45866","3242.67"
"29.60000","2.46672","3249.55"
"29.70000","2.47469","3256.56"
"29.80000","2.48285","3264.23"
"29.90000","2.49152","3271.14"
"30.00000","2.50019","3280.45"
"30.10000","2.50875","3287.94"
"30.20000","2.51692","3295.23"
"30.30000","2.52488","3302.24"
"30.40000","2.53315","3309.91"
"30.50000","2.54151","3317.65"
"30.60000","2.54998","3324.74"
"30.70000","2.55844","3332.27"
"30.80000","2.56701","3339.8"
"30.90000","2.57548","3347.57"
"31.00000","2.58344","3354.49"
"31.10000","2.59140","3361.32"
"31.20000","2.59987","3368.17"
"31.30000","2.60834","3375.65"
"31.40000","2.61670","3383.39"
"31.50000","2.62537","3390.36"
"31.60000","2.63374","3397.68"
"31.70000","2.64170","3404.64"
"31.80000","2.64976","3411.66"
"31.90000","2.65813","3418.85"
"32.00000","2.66680","3427.11"
"32.10000","2.67516","3433.76"
"32.20000","2.68353","3441.58"
"32.30000","2.69179","3448.05"
"32.40000","2.69966","3454.37"
"32.50000","2.70792","3462.64"
"32.60000","2.71659","3469.74"
"32.70000","2.72526","3477.13"
"32.80000","2.73352","3483.29"
"32.90000","2.74179","3490.89"
"33.00000","2.75026","3497.45"
"33.10000","2.75842","3504.87"
"33.20000","2.76658","3511.46"
"33.30000","2.77515","3518.58"
"33.40000","2.78372","3524.97"
"33.50000","2.79208","3532.33"
"33.60000","2.80045","3538.9"
"33.70000","2.80841","3545.51"
"33.80000","2.81658","3551.64"
"33.90000","2.82474","3559.56"
"34.00000","2.83321","3566.51"
"34.10000","2.84188","3573.39"
"34.20000","2.85034","3581.28"
"34.30000","2.85871","3586.96"
"34.40000","2.86677","3592.7"
"34.50000","2.87484","3598.95"
"34.60000","2.88300","3604.65"
"34.70000","2.89147","3611.24"
"34.80000","2.90003","3617.96"
"34.90000","2.90840","3624.59"
"35.00000","2.91646","3631.35"
"35.10000","2.92473","3638.33"
"35.20000","2.93309","3644.42"
"35.30000","2.94166","3651.58"
"35.40000","2.95033","3657.96"
"35.50000","2.95860","3664.73"
"35.60000","2.96686","3671.04"
"35.70000","2.97513","3677.01"
"35.80000","2.98319","3682.99"
"35.90000","2.99155","3690.04"
"36.00000","3.00022","3696.65"
"36.10000","3.00859","3703.47"
"36.20000","3.01695","3710.15"
"36.30000","3.02542","3716.03"
"36.40000","3.03379","3722.19"
"36.50000","3.04165","3728.59"
"36.60000","3.04971","3733.59"
"36.70000","3.05838","3739.74"
"36.80000","3.06695","3746.93"
"36.90000","3.07511","3753.34"
"37.00000","3.08348","3758.29"
"37.10000","3.09174","3764.68"
"37.20000","3.09971","3769.94"
"37.30000","3.10797","3775.67"
"37.40000","3.11664","3781.86"
"37.50000","3.12531","3787.23"
"37.60000","3.13347","3794.42"
"37.70000","3.14154","3799.24"
"37.80000","3.14990","3804.91"
"37.90000","3.15827","3810.32"
"38.00000","3.16653","3816.87"
"38.10000","3.17500","3822.09"
"38.20000","3.18337","3827.43"
"38.30000","3.19163","3832.79"
"38.40000","3.20010","3837.86"
"38.50000","3.20816","3843.6"
"38.60000","3.21643","3848.67"
"38.70000","3.22459","3854.38"
"38.80000","3.23316","3859.65"
"38.90000","3.24193","3865.15"
"39.00000","3.25029","3871.4"
"39.10000","3.25856","3876.69"
"39.20000","3.26662","3880.56"
"39.30000","3.27479","3885.68"
"39.40000","3.28325","3891.46"
"39.50000","3.29202","3896.47"
"39.60000","3.30049","3901.47"
"39.70000","3.30865","3906.07"
"39.80000","3.31661","3909.9"
"39.90000","3.32468","3914.03"
"40.00000","3.33314","3918.2"
"40.10000","3.34151","3921.75"
"40.20000","3.35008","3926.52"
"40.30000","3.35844","3931.08"
"40.40000","3.36681","3934.76"
"40.50000","3.37518","3939.2"
"40.60000","3.38314","3942.09"
"40.70000","3.39150","3945.44"
"40.80000","3.39997","3950.15"
"40.90000","3.40814","3953.37"
"41.00000","3.41680","3957.15"
"41.10000","3.42537","3959.12"
"41.20000","3.43354","3962.15"
"41.30000","3.44140","3963.61"
"41.40000","3.44976","3965.78"
"41.50000","3.45873","3968.54"
"41.60000","3.46710","3970.94"
"41.70000","3.47526","3971.74"
"41.80000","3.48353","3972.63"
"41.90000","3.49179","3973.97"
"42.00000","3.49986","3974.57"
"42.10000","3.50812","3975.55"
"42.20000","3.51699","3975.42"
"42.30000","3.52536","3975.85"
"42.40000","3.53342","3974.9"
"42.50000","3.54169","3973.76"
"42.60000","3.55005","3971.71"
"42.70000","3.55822","3970.18"
"42.80000","3.56658","3966.56"
"42.90000","3.57505","3963.02"
"43.00000","3.58352","3958.3"
"43.10000","3.59188","3953.09"
"43.20000","3.60005","3945.68"
"43.30000","3.60821","3936.73"
"43.40000","3.61648","3925.45"
"43.50000","3.62474","3910.23"
"43.60000","3.63341","3889.75"
"43.70000","3.64208","3858.88"
"43.80000","3.65044","3796.86"
"43.83600","3.65337","3542.46"
"43.84000","3.65367","3222.23"
"43.84400","3.65407","2831.71"
"43.84800","3.65447","2405.05"
"43.85000","3.65468","2192.01"