File: Data_Processing/Tensile-Data/Sequence_59.csv
General : Start date,"11/5/2024 8:52 AM"
General : End date,"11/5/2024 8:53 AM"
Specimen notes : Specimen note 1,"Day 3, red, 230, batch 15, seq 59"
Test : Rate 1,"5.00000",mm/min

Time,Extension,Load
(s),(mm),(N)
"0.00000","0.00010","-0.52706"
"0.10000","0.00222","0.00417"
"0.20000","0.01300","16.16750"
"0.30000","0.02621","44.83589"
"0.40000","0.03457","63.41560"
"0.50000","0.04253","76.56002"
"0.60000","0.05140","93.65182"
"0.70000","0.05997","109.825"
"0.80000","0.06854","124.348"
"0.90000","0.07711","139.599"
"1.00000","0.08547","155.378"
"1.10000","0.09384","170.563"
"1.20000","0.10231","185.253"
"1.30000","0.11037","198.292"
"1.40000","0.11873","213.636"
"1.50000","0.12720","225.946"
"1.60000","0.13587","241.088"
"1.70000","0.14413","254.227"
"1.80000","0.15240","268.562"
"1.90000","0.16036","283.189"
"2.00000","0.16863","294.825"
"2.10000","0.17699","309.216"
"2.20000","0.18546","323.546"
"2.30000","0.19383","338.963"
"2.40000","0.20239","352.912"
"2.50000","0.21066","365.575"
"2.60000","0.21862","380.72"
"2.70000","0.22689","394.816"
"2.80000","0.23525","409.205"
"2.90000","0.24382","423.346"
"3.00000","0.25229","437.693"
"3.10000","0.26065","451.774"
"3.20000","0.26882","464.389"
"3.30000","0.27678","477.218"
"3.40000","0.28504","490.828"
"3.50000","0.29381","505.002"
"3.60000","0.30228","517.874"
"3.70000","0.31065","531.566"
"3.80000","0.31881","544.219"
"3.90000","0.32718","558.067"
"4.00000","0.33534","570.362"
"4.10000","0.34361","582.212"
"4.20000","0.35207","594.955"
"4.30000","0.36064","608.821"
"4.40000","0.36890","622.822"
"4.50000","0.37727","634.217"
"4.60000","0.38554","647.5"
"4.70000","0.39370","658.46"
"4.80000","0.40196","671.471"
"4.90000","0.41043","683.668"
"5.00000","0.41890","696.086"
"5.10000","0.42737","707.92"
"5.20000","0.43553","718.032"
"5.30000","0.44369","729.948"
"5.40000","0.45176","742.328"
"5.50000","0.46012","754.485"
"5.60000","0.46879","765.539"
"5.70000","0.47736","778.051"
"5.80000","0.48572","789.72"
"5.90000","0.49359","801.066"
"6.00000","0.50165","812.756"
"6.10000","0.51012","825.009"
"6.20000","0.51868","836.669"
"6.30000","0.52715","849.263"
"6.40000","0.53552","859.887"
"6.50000","0.54368","870.665"
"6.60000","0.55205","882.873"
"6.70000","0.56031","894.89"
"6.80000","0.56858","905.093"
"6.90000","0.57714","916.426"
"7.00000","0.58561","927.55"
"7.10000","0.59398","939.912"
"7.20000","0.60254","950.321"
"7.30000","0.61061","960.496"
"7.40000","0.61867","971.599"
"7.50000","0.62704","982.47"
"7.60000","0.63560","993.649"
"7.70000","0.64397","1004.49"
"7.80000","0.65224","1015"
"7.90000","0.66060","1026.02"
"8.00000","0.66866","1036.97"
"8.10000","0.67673","1046.99"
"8.20000","0.68520","1057.56"
"8.30000","0.69376","1068.36"
"8.40000","0.70223","1078.94"
"8.50000","0.71060","1088.72"
"8.60000","0.71886","1099.06"
"8.70000","0.72682","1109.83"
"8.80000","0.73499","1118.91"
"8.90000","0.74345","1128.44"
"9.00000","0.75222","1139.2"
"9.10000","0.76049","1149.88"
"9.20000","0.76855","1159.42"
"9.30000","0.77692","1169.06"
"9.40000","0.78548","1179.16"
"9.50000","0.79375","1189.22"
"9.60000","0.80201","1197.89"
"9.70000","0.81058","1208.18"
"9.80000","0.81905","1217.87"
"9.90000","0.82731","1227.86"
"10.00000","0.83558","1237.36"
"10.10000","0.84364","1245.61"
"10.20000","0.85191","1255.33"
"10.30000","0.86027","1263.99"
"10.40000","0.86884","1274.98"
"10.50000","0.87751","1284.08"
"10.60000","0.88567","1292.1"
"10.70000","0.89354","1300.84"
"10.80000","0.90180","1309.94"
"10.90000","0.91027","1318.42"
"11.00000","0.91863","1327.6"
"11.10000","0.92710","1337.24"
"11.20000","0.93547","1346.47"
"11.30000","0.94353","1355.65"
"11.40000","0.95159","1363.97"
"11.50000","0.95986","1372.87"
"11.60000","0.96843","1381.29"
"11.70000","0.97699","1390.92"
"11.80000","0.98526","1400.94"
"11.90000","0.99372","1410.1"
"12.00000","1.00229","1420.18"
"12.10000","1.01046","1428.64"
"12.20000","1.01862","1437.16"
"12.30000","1.02699","1446.64"
"12.40000","1.03545","1456.43"
"12.50000","1.04392","1465.92"
"12.60000","1.05229","1472.47"
"12.70000","1.06065","1482.59"
"12.80000","1.06861","1492.12"
"12.90000","1.07678","1501.15"
"13.00000","1.08535","1509.44"
"13.10000","1.09381","1518.74"
"13.20000","1.10218","1527.64"
"13.30000","1.11065","1536.59"
"13.40000","1.11901","1545.74"
"13.50000","1.12697","1554.32"
"13.60000","1.13514","1561.96"
"13.70000","1.14360","1570.1"
"13.80000","1.15217","1578.79"
"13.90000","1.16044","1586.58"
"14.00000","1.16860","1595.11"
"14.10000","1.17707","1603.71"
"14.20000","1.18553","1611.61"
"14.30000","1.19350","1619.37"
"14.40000","1.20206","1628.55"
"14.50000","1.21053","1638.33"
"14.60000","1.21880","1645.61"
"14.70000","1.22706","1653.16"
"14.80000","1.23543","1661.89"
"14.90000","1.24339","1669.74"
"15.00000","1.25166","1678.05"
"15.10000","1.26002","1686.51"
"15.20000","1.26909","1696.27"
"15.30000","1.27746","1704.09"
"15.40000","1.28552","1711.99"
"15.50000","1.29369","1720.39"
"15.60000","1.30205","1729.09"
"15.70000","1.31032","1736.87"
"15.80000","1.31888","1745.22"
"15.90000","1.32735","1754.27"
"16.00000","1.33582","1761.27"
"16.10000","1.34388","1770.68"
"16.20000","1.35195","1778.85"
"16.30000","1.36021","1785.58"
"16.40000","1.36868","1794.84"
"16.50000","1.37714","1804.33"
"16.60000","1.38561","1812.61"
"16.70000","1.39408","1821.12"
"16.80000","1.40224","1829.54"
"16.90000","1.41020","1837.76"
"17.00000","1.41837","1845.3"
"17.10000","1.42704","1854.81"
"17.20000","1.43550","1863.37"
"17.30000","1.44387","1871.61"
"17.40000","1.45244","1879.57"
"17.50000","1.46050","1889.19"
"17.60000","1.46836","1896.26"
"17.70000","1.47663","1904.34"
"17.80000","1.48540","1913.29"
"17.90000","1.49396","1921.34"
"18.00000","1.50243","1929.54"
"18.10000","1.51070","1938.74"
"18.20000","1.51886","1947.27"
"18.30000","1.52682","1954.1"
"18.40000","1.53529","1962.34"
"18.50000","1.54386","1972.09"
"18.60000","1.55222","1979.85"
"18.70000","1.56049","1988.64"
"18.80000","1.56895","1997.09"
"18.90000","1.57722","2005.27"
"19.00000","1.58528","2014.5"
"19.10000","1.59345","2022.49"
"19.20000","1.60211","2032.08"
"19.30000","1.61068","2040.82"
"19.40000","1.61885","2047.53"
"19.50000","1.62721","2057.1"
"19.60000","1.63538","2066.4"
"19.70000","1.64344","2074.46"
"19.80000","1.65181","2083.75"
"19.90000","1.66047","2093.09"
"20.00000","1.66904","2100.39"
"20.10000","1.67731","2110.06"
"20.20000","1.68537","2118.39"
"20.30000","1.69343","2126.55"
"20.40000","1.70180","2135.18"
"20.50000","1.71047","2144.32"
"20.60000","1.71893","2153.07"
"20.70000","1.72720","2160.88"
"20.80000","1.73546","2169.54"
"20.90000","1.74373","2178.92"
"21.00000","1.75199","2185.79"
"21.10000","1.76036","2194.42"
"21.20000","1.76883","2203.49"
"21.30000","1.77719","2213.1"
"21.40000","1.78566","2220.51"
"21.50000","1.79393","2228.29"
"21.60000","1.80199","2237.14"
"21.70000","1.81005","2245.86"
"21.80000","1.81842","2253.59"
"21.90000","1.82688","2262.53"
"22.00000","1.83545","2270.5"
"22.10000","1.84392","2280.44"
"22.20000","1.85218","2288.17"
"22.30000","1.86015","2297.26"
"22.40000","1.86831","2304.43"
"22.50000","1.87688","2313.27"
"22.60000","1.88555","2322.47"
"22.70000","1.89401","2329.8"
"22.80000","1.90208","2338.13"
"22.90000","1.91044","2346.74"
"23.00000","1.91861","2355.13"
"23.10000","1.92677","2362.39"
"23.20000","1.93534","2371.25"
"23.30000","1.94391","2380.06"
"23.40000","1.95217","2389.42"
"23.50000","1.96044","2396.47"
"23.60000","1.96890","2404.51"
"23.70000","1.97707","2413.43"
"23.80000","1.98533","2421.47"
"23.90000","1.99350","2429.53"
"24.00000","2.00216","2438.46"
"24.10000","2.01063","2447.41"
"24.20000","2.01859","2455.82"
"24.30000","2.02696","2464.64"
"24.40000","2.03533","2472.68"
"24.50000","2.04369","2481.61"
"24.60000","2.05196","2489.74"
"24.70000","2.06063","2497.57"
"24.80000","2.06919","2505.7"
"24.90000","2.07726","2514.44"
"25.00000","2.08532","2523.03"
"25.10000","2.09358","2530.61"
"25.20000","2.10205","2538.53"
"25.30000","2.11052","2547.5"
"25.40000","2.11888","2555.81"
"25.50000","2.12725","2563.85"
"25.60000","2.13541","2572.15"
"25.70000","2.14358","2580.44"
"25.80000","2.15174","2588.51"
"25.90000","2.16011","2597.05"
"26.00000","2.16868","2606.84"
"26.10000","2.17724","2614.52"
"26.20000","2.18571","2623.72"
"26.30000","2.19397","2631.34"
"26.40000","2.20194","2639.93"
"26.50000","2.21010","2647.64"
"26.60000","2.21857","2656.44"
"26.70000","2.22724","2665.4"
"26.80000","2.23570","2674.15"
"26.90000","2.24407","2682"
"27.00000","2.25233","2691.16"
"27.10000","2.26020","2698.49"
"27.20000","2.26836","2706.32"
"27.30000","2.27693","2714.23"
"27.40000","2.28550","2723.36"
"27.50000","2.29386","2731.69"
"27.60000","2.30203","2740.81"
"27.70000","2.31039","2748.14"
"27.80000","2.31846","2756.4"
"27.90000","2.32682","2764.34"
"28.00000","2.33549","2773.19"
"28.10000","2.34375","2781.9"
"28.20000","2.35202","2791.39"
"28.30000","2.36049","2799.56"
"28.40000","2.36905","2807.94"
"28.50000","2.37702","2815.27"
"28.60000","2.38518","2823.67"
"28.70000","2.39375","2833.43"
"28.80000","2.40242","2840.77"
"28.90000","2.41078","2848.56"
"29.00000","2.41905","2857.1"
"29.10000","2.42711","2866.43"
"29.20000","2.43517","2873.85"
"29.30000","2.44354","2882.48"
"29.40000","2.45211","2892.5"
"29.50000","2.46078","2900.03"
"29.60000","2.46904","2909.2"
"29.70000","2.47710","2917.59"
"29.80000","2.48517","2926.24"
"29.90000","2.49353","2934.46"
"30.00000","2.50210","2943.58"
"30.10000","2.51057","2951.98"
"30.20000","2.51893","2960.72"
"30.30000","2.52720","2968.42"
"30.40000","2.53516","2976.91"
"30.50000","2.54333","2984.56"
"30.60000","2.55169","2993"
"30.70000","2.56046","3002.77"
"30.80000","2.56883","3011.16"
"30.90000","2.57719","3018.75"
"31.00000","2.58566","3026.92"
"31.10000","2.59392","3036.5"
"31.20000","2.60189","3044.35"
"31.30000","2.61005","3051.88"
"31.40000","2.61872","3061.85"
"31.50000","2.62729","3071.06"
"31.60000","2.63565","3078.76"
"31.70000","2.64412","3087.78"
"31.80000","2.65208","3096.81"
"31.90000","2.66004","3104.4"
"32.00000","2.66851","3113.67"
"32.10000","2.67728","3122.26"
"32.20000","2.68585","3130.75"
"32.30000","2.69411","3139.89"
"32.40000","2.70228","3147.95"
"32.50000","2.71034","3157.03"
"32.60000","2.71840","3163.91"
"32.70000","2.72677","3172.31"
"32.80000","2.73544","3181.81"
"32.90000","2.74370","3189.24"
"33.00000","2.75187","3197.37"
"33.10000","2.76023","3206.14"
"33.20000","2.76860","3215.22"
"33.30000","2.77666","3222.57"
"33.40000","2.78503","3231"
"33.50000","2.79370","3240.08"
"33.60000","2.80226","3249.06"
"33.70000","2.81053","3257.48"
"33.80000","2.81879","3265.72"
"33.90000","2.82686","3273.68"
"34.00000","2.83512","3282.41"
"34.10000","2.84359","3291.84"
"34.20000","2.85226","3300.42"
"34.30000","2.86072","3308.14"
"34.40000","2.86879","3316.83"
"34.50000","2.87685","3325.41"
"34.60000","2.88522","3332.8"
"34.70000","2.89379","3341.16"
"34.80000","2.90215","3349.91"
"34.90000","2.91072","3359.01"
"35.00000","2.91898","3366.58"
"35.10000","2.92735","3374.87"
"35.20000","2.93541","3383.97"
"35.30000","2.94338","3390.68"
"35.40000","2.95194","3397.63"
"35.50000","2.96061","3407.48"
"35.60000","2.96898","3415.44"
"35.70000","2.97734","3424.14"
"35.80000","2.98571","3432.07"
"35.90000","2.99377","3440.67"
"36.00000","3.00184","3448.48"
"36.10000","3.01020","3456.33"
"36.20000","3.01877","3465.84"
"36.30000","3.02724","3473.97"
"36.40000","3.03550","3482.06"
"36.50000","3.04387","3490.06"
"36.60000","3.05183","3498.55"
"36.70000","3.06009","3505.92"
"36.80000","3.06866","3515.2"
"36.90000","3.07733","3524.23"
"37.00000","3.08570","3532.07"
"37.10000","3.09376","3538.67"
"37.20000","3.10213","3548.37"
"37.30000","3.11029","3555.36"
"37.40000","3.11855","3563.44"
"37.50000","3.12712","3571"
"37.60000","3.13559","3579.92"
"37.70000","3.14385","3587.94"
"37.80000","3.15232","3596.64"
"37.90000","3.16059","3603.84"
"38.00000","3.16885","3611"
"38.10000","3.17691","3619.07"
"38.20000","3.18518","3626.78"
"38.30000","3.19385","3636.03"
"38.40000","3.20231","3643.56"
"38.50000","3.21048","3651.2"
"38.60000","3.21874","3659.37"
"38.70000","3.22671","3666.56"
"38.80000","3.23497","3674.93"
"38.90000","3.24354","3684.21"
"39.00000","3.25211","3692.89"
"39.10000","3.26067","3700.42"
"39.20000","3.26884","3708.44"
"39.30000","3.27690","3716.54"
"39.40000","3.28517","3724.76"
"39.50000","3.29373","3731.91"
"39.60000","3.30230","3739.81"
"39.70000","3.31067","3748.11"
"39.80000","3.31893","3756.04"
"39.90000","3.32710","3763.71"
"40.00000","3.33516","3770.74"
"40.10000","3.34353","3776.81"
"40.20000","3.35199","3785.79"
"40.30000","3.36046","3794"
"40.40000","3.36903","3801.51"
"40.50000","3.37739","3808.54"
"40.60000","3.38566","3817.23"
"40.70000","3.39372","3823.8"
"40.80000","3.40179","3831.05"
"40.90000","3.41025","3838.65"
"41.00000","3.41882","3847.08"
"41.10000","3.42729","3854.44"
"41.20000","3.43575","3860.94"
"41.30000","3.44372","3868.84"
"41.40000","3.45168","3876.23"
"41.50000","3.45994","3884.13"
"41.60000","3.46881","3891.33"
"41.70000","3.47728","3899.55"
"41.80000","3.48565","3907.31"
"41.90000","3.49391","3913.96"
"42.00000","3.50218","3922.19"
"42.10000","3.51014","3928.61"
"42.20000","3.51840","3935.27"
"42.30000","3.52707","3943.98"
"42.40000","3.53554","3951.48"
"42.50000","3.54380","3958.62"
"42.60000","3.55227","3965.82"
"42.70000","3.56064","3972.89"
"42.80000","3.56870","3980.17"
"42.90000","3.57686","3986.69"
"43.00000","3.58533","3994.23"
"43.10000","3.59400","4001.58"
"43.20000","3.60236","4007.65"
"43.30000","3.61063","4014.11"
"43.40000","3.61869","4022.22"
"43.50000","3.62686","4028.29"
"43.60000","3.63522","4034.23"
"43.70000","3.64379","4040.85"
"43.80000","3.65246","4048.63"
"43.90000","3.66072","4055.3"
"44.00000","3.66859","4062.55"
"44.10000","3.67665","4067.09"
"44.20000","3.68502","4073.67"
"44.30000","3.69348","4081.35"
"44.40000","3.70215","4088.18"
"44.50000","3.71062","4093.95"
"44.60000","3.71878","4101.84"
"44.70000","3.72685","4107.54"
"44.80000","3.73491","4113.06"
"44.90000","3.74348","4120.53"
"45.00000","3.75204","4126.99"
"45.10000","3.76051","4133.22"
"45.20000","3.76918","4139.16"
"45.30000","3.77754","4144.94"
"45.40000","3.78561","4150.71"
"45.50000","3.79347","4156.03"
"45.60000","3.80173","4161.38"
"45.70000","3.81030","4167.25"
"45.80000","3.81887","4174.43"
"45.90000","3.82734","4179.3"
"46.00000","3.83570","4185.33"
"46.10000","3.84366","4191.12"
"46.20000","3.85183","4196.11"
"46.30000","3.86030","4200.76"
"46.40000","3.86876","4206.88"
"46.50000","3.87713","4211.82"
"46.60000","3.88570","4216.27"
"46.70000","3.89396","4220.89"
"46.80000","3.90212","4225.36"
"46.90000","3.91019","4228.42"
"47.00000","3.91876","4232.54"
"47.10000","3.92712","4237.28"
"47.20000","3.93539","4240.31"
"47.30000","3.94385","4243.7"
"47.40000","3.95222","4247.65"
"47.50000","3.96038","4250.38"
"47.60000","3.96845","4252.66"
"47.70000","3.97691","4255.03"
"47.80000","3.98558","4256.81"
"47.90000","3.99415","4258.63"
"48.00000","4.00221","4258.82"
"48.10000","4.01048","4259.78"
"48.20000","4.01854","4259.86"
"48.30000","4.02681","4258.38"
"48.40000","4.03537","4259.28"
"48.50000","4.04404","4257.44"
"48.60000","4.05251","4255.13"
"48.70000","4.06067","4253.47"
"48.80000","4.06864","4250.92"
"48.90000","4.07700","4246.84"
"49.00000","4.08537","4242.35"
"49.10000","4.09373","4236.79"
"49.20000","4.10220","4232.33"
"49.30000","4.11036","4224.39"
"49.40000","4.11853","4217.4"
"49.50000","4.12689","4209.9"
"49.60000","4.13506","4200.49"
"49.70000","4.14363","4190.46"
"49.80000","4.15199","4180.58"
"49.90000","4.16036","4168.37"
"50.00000","4.16893","4155.81"
"50.10000","4.17729","4142.33"
"50.20000","4.18546","4126.04"
"50.30000","4.19362","4108.88"
"50.40000","4.20199","4089.4"
"50.50000","4.21065","4068.77"
"50.60000","4.21912","4044.77"
"50.70000","4.22739","4016.42"
"50.80000","4.23565","3984.62"
"50.90000","4.24361","3943.35"
"51.00000","4.25188","3886.23"
"51.10000","4.26055","3782.47"
"51.12600","4.26287","3471.58"
"51.13000","4.26317","3132.96"
"51.13400","4.26367","2736.18"
"51.13800","4.26407","2305.4"