File: Data_Processing/Tensile-Data/Sequence_1.csv
General : Start date,"10/22/2024 9:06 AM"
General : End date,"10/22/2024 9:06 AM"
Specimen notes : Specimen note 1,"black, 200, batch 5, seq 1"
Test : Rate 1,"5.00000",mm/min

Time,Extension,Load
(s),(mm),(N)
"0.00000","0.00010","73.39417"
"0.10000","0.00202","73.20692"
"0.20000","0.00857","80.01574"
"0.30000","0.02097","102.253"
"0.40000","0.03195","124.511"
"0.50000","0.04092","141.279"
"0.60000","0.04979","158.176"
"0.70000","0.05866","175.335"
"0.80000","0.06693","189.48"
"0.90000","0.07509","204.418"
"1.00000","0.08315","218.733"
"1.10000","0.09172","233.952"
"1.20000","0.10039","249.946"
"1.30000","0.10876","254.025"
"1.40000","0.11682","267.571"
"1.50000","0.12478","280.697"
"1.60000","0.13315","294.557"
"1.70000","0.14182","309.67"
"1.80000","0.15048","324.701"
"1.90000","0.15875","339.267"
"2.00000","0.16681","353.442"
"2.10000","0.17528","368.015"
"2.20000","0.18365","382.089"
"2.30000","0.19191","396.99"
"2.40000","0.20028","410.709"
"2.50000","0.20864","425.786"
"2.60000","0.21701","440.598"
"2.70000","0.22548","455.062"
"2.80000","0.23384","469.204"
"2.90000","0.24180","483.54"
"3.00000","0.24987","497.394"
"3.10000","0.25843","511.922"
"3.20000","0.26710","526.47"
"3.30000","0.27537","541.701"
"3.40000","0.28383","556.227"
"3.50000","0.29220","571.262"
"3.60000","0.30006","584.903"
"3.70000","0.30823","599.79"
"3.80000","0.31669","614.648"
"3.90000","0.32546","629.911"
"4.00000","0.33383","644.507"
"4.10000","0.34189","658.69"
"4.20000","0.35016","674.351"
"4.30000","0.35842","687.683"
"4.40000","0.36669","701.113"
"4.50000","0.37525","716.912"
"4.60000","0.38382","730.475"
"4.70000","0.39189","745.126"
"4.80000","0.39995","758.933"
"4.90000","0.40842","772.887"
"5.00000","0.41678","787.229"
"5.10000","0.42474","800.598"
"5.20000","0.43321","815.445"
"5.30000","0.44198","830"
"5.40000","0.45055","845.222"
"5.50000","0.45871","859.129"
"5.60000","0.46667","872.199"
"5.70000","0.47484","886.103"
"5.80000","0.48331","901.921"
"5.90000","0.49177","915.206"
"6.00000","0.50034","929.454"
"6.10000","0.50881","943.868"
"6.20000","0.51697","958.185"
"6.30000","0.52503","971.702"
"6.40000","0.53320","986.056"
"6.50000","0.54187","1000.36"
"6.60000","0.55033","1014.89"
"6.70000","0.55880","1029.14"
"6.80000","0.56727","1043.72"
"6.90000","0.57523","1056.28"
"7.00000","0.58309","1070.19"
"7.10000","0.59146","1083.15"
"7.20000","0.60013","1097.16"
"7.30000","0.60849","1111.87"
"7.40000","0.61666","1125.84"
"7.50000","0.62532","1140.28"
"7.60000","0.63369","1154.38"
"7.70000","0.64165","1166.73"
"7.80000","0.64992","1180.46"
"7.90000","0.65838","1194.66"
"8.00000","0.66695","1208.34"
"8.10000","0.67532","1222.22"
"8.20000","0.68368","1236.96"
"8.30000","0.69185","1249.66"
"8.40000","0.69971","1263.59"
"8.50000","0.70797","1276.52"
"8.60000","0.71674","1291.16"
"8.70000","0.72541","1305.71"
"8.80000","0.73378","1318.66"
"8.90000","0.74194","1332.29"
"9.00000","0.75011","1345.34"
"9.10000","0.75827","1358.65"
"9.20000","0.76654","1371.73"
"9.30000","0.77510","1385.29"
"9.40000","0.78367","1399.44"
"9.50000","0.79204","1413.32"
"9.60000","0.80020","1426.27"
"9.70000","0.80836","1439.57"
"9.80000","0.81663","1452.1"
"9.90000","0.82490","1466.17"
"10.00000","0.83356","1480.82"
"10.10000","0.84203","1494.77"
"10.20000","0.85050","1507.48"
"10.30000","0.85866","1520.5"
"10.40000","0.86672","1533.18"
"10.50000","0.87499","1544.64"
"10.60000","0.88336","1557.56"
"10.70000","0.89192","1571.44"
"10.80000","0.90049","1584.83"
"10.90000","0.90865","1598.15"
"11.00000","0.91662","1610.68"
"11.10000","0.92478","1622.88"
"11.20000","0.93315","1635.95"
"11.30000","0.94171","1649.94"
"11.40000","0.95028","1663.38"
"11.50000","0.95865","1676.22"
"11.60000","0.96691","1689.32"
"11.70000","0.97508","1700.97"
"11.80000","0.98324","1713.85"
"11.90000","0.99171","1726.92"
"12.00000","1.00007","1739.3"
"12.10000","1.00834","1753.33"
"12.20000","1.01701","1766.39"
"12.30000","1.02547","1779.77"
"12.40000","1.03364","1791.37"
"12.50000","1.04150","1803.15"
"12.60000","1.04997","1816.23"
"12.70000","1.05853","1829.6"
"12.80000","1.06700","1841.84"
"12.90000","1.07527","1854.45"
"13.00000","1.08353","1867.22"
"13.10000","1.09180","1879.91"
"13.20000","1.09986","1892.44"
"13.30000","1.10833","1904.31"
"13.40000","1.11710","1917.29"
"13.50000","1.12546","1930.42"
"13.60000","1.13353","1942.69"
"13.70000","1.14179","1955.41"
"13.80000","1.15016","1966.93"
"13.90000","1.15832","1978.54"
"14.00000","1.16669","1991.17"
"14.10000","1.17535","2003.53"
"14.20000","1.18362","2015.82"
"14.30000","1.19188","2027.87"
"14.40000","1.20005","2040.9"
"14.50000","1.20821","2051.74"
"14.60000","1.21648","2064.24"
"14.70000","1.22474","2076.43"
"14.80000","1.23351","2089.86"
"14.90000","1.24198","2102.96"
"15.00000","1.25034","2114.49"
"15.10000","1.25851","2126.68"
"15.20000","1.26657","2138.19"
"15.30000","1.27474","2150.49"
"15.40000","1.28341","2162.93"
"15.50000","1.29207","2175.39"
"15.60000","1.30034","2187.43"
"15.70000","1.30860","2199.84"
"15.80000","1.31667","2211.27"
"15.90000","1.32503","2222.4"
"16.00000","1.33330","2234.4"
"16.10000","1.34187","2247.07"
"16.20000","1.35043","2259.11"
"16.30000","1.35870","2270.74"
"16.40000","1.36706","2282.58"
"16.50000","1.37513","2294.56"
"16.60000","1.38329","2306.06"
"16.70000","1.39176","2317.99"
"16.80000","1.40023","2329.74"
"16.90000","1.40849","2341.83"
"17.00000","1.41706","2353.95"
"17.10000","1.42542","2365.57"
"17.20000","1.43349","2375.87"
"17.30000","1.44145","2387.09"
"17.40000","1.44992","2399.06"
"17.50000","1.45858","2411.35"
"17.60000","1.46685","2423.41"
"17.70000","1.47522","2433.56"
"17.80000","1.48358","2445.99"
"17.90000","1.49175","2457.94"
"18.00000","1.49971","2468.11"
"18.10000","1.50828","2479.15"
"18.20000","1.51694","2492.52"
"18.30000","1.52521","2503.76"
"18.40000","1.53327","2513.55"
"18.50000","1.54194","2525.65"
"18.60000","1.55031","2537.41"
"18.70000","1.55837","2547.83"
"18.80000","1.56684","2558.86"
"18.90000","1.57530","2571.73"
"19.00000","1.58367","2582.64"
"19.10000","1.59193","2593.93"
"19.20000","1.60010","2605.33"
"19.30000","1.60836","2616.09"
"19.40000","1.61663","2626.93"
"19.50000","1.62510","2638.72"
"19.60000","1.63366","2650.04"
"19.70000","1.64223","2661.64"
"19.80000","1.65029","2671.57"
"19.90000","1.65826","2682.53"
"20.00000","1.66642","2694.31"
"20.10000","1.67489","2704.13"
"20.20000","1.68356","2715.6"
"20.30000","1.69192","2726.32"
"20.40000","1.70029","2737.85"
"20.50000","1.70835","2748.45"
"20.60000","1.71641","2759.13"
"20.70000","1.72478","2769.2"
"20.80000","1.73335","2780.28"
"20.90000","1.74192","2792.35"
"21.00000","1.75038","2803.65"
"21.10000","1.75875","2813.6"
"21.20000","1.76691","2824.52"
"21.30000","1.77488","2834.47"
"21.40000","1.78334","2844.84"
"21.50000","1.79181","2856.33"
"21.60000","1.80017","2866.31"
"21.70000","1.80874","2878.39"
"21.80000","1.81731","2888.81"
"21.90000","1.82537","2899.2"
"22.00000","1.83303","2909.51"
"22.10000","1.84150","2920.07"
"22.20000","1.85027","2930.92"
"22.30000","1.85863","2942.33"
"22.40000","1.86690","2952"
"22.50000","1.87527","2963.1"
"22.60000","1.88333","2972.58"
"22.70000","1.89139","2982.75"
"22.80000","1.89986","2992.9"
"22.90000","1.90863","3004.15"
"23.00000","1.91709","3013.63"
"23.10000","1.92516","3024.3"
"23.20000","1.93332","3032.83"
"23.30000","1.94159","3043.62"
"23.40000","1.94985","3054.07"
"23.50000","1.95822","3063.46"
"23.60000","1.96689","3074.93"
"23.70000","1.97535","3085.43"
"23.80000","1.98372","3095.06"
"23.90000","1.99188","3105.53"
"24.00000","1.99995","3113.9"
"24.10000","2.00831","3124.23"
"24.20000","2.01678","3134.65"
"24.30000","2.02545","3145.47"
"24.40000","2.03381","3155.87"
"24.50000","2.04218","3165.57"
"24.60000","2.05034","3175.91"
"24.70000","2.05821","3184.18"
"24.80000","2.06647","3193.8"
"24.90000","2.07504","3203.24"
"25.00000","2.08381","3214.1"
"25.10000","2.09227","3224.35"
"25.20000","2.10024","3233.13"
"25.30000","2.10830","3242.23"
"25.40000","2.11657","3251.72"
"25.50000","2.12503","3261.3"
"25.60000","2.13340","3270.25"
"25.70000","2.14186","3280.03"
"25.80000","2.15033","3290.68"
"25.90000","2.15839","3299.76"
"26.00000","2.16666","3308.13"
"26.10000","2.17482","3316.81"
"26.20000","2.18329","3325.96"
"26.30000","2.19166","3335.84"
"26.40000","2.20002","3344.83"
"26.50000","2.20859","3354.67"
"26.60000","2.21706","3363.5"
"26.70000","2.22512","3372.79"
"26.80000","2.23308","3381.02"
"26.90000","2.24155","3389.69"
"27.00000","2.25022","3399.91"
"27.10000","2.25848","3408.88"
"27.20000","2.26675","3418.17"
"27.30000","2.27511","3426.93"
"27.40000","2.28318","3435.19"
"27.50000","2.29144","3444.63"
"27.60000","2.30001","3453.71"
"27.70000","2.30868","3462.5"
"27.80000","2.31704","3471.5"
"27.90000","2.32521","3480.12"
"28.00000","2.33357","3487.65"
"28.10000","2.34204","3496.43"
"28.20000","2.35021","3504.88"
"28.30000","2.35857","3512.74"
"28.40000","2.36714","3520.9"
"28.50000","2.37540","3530.1"
"28.60000","2.38367","3537.79"
"28.70000","2.39173","3545.02"
"28.80000","2.39990","3553.99"
"28.90000","2.40796","3560.85"
"29.00000","2.41663","3569.73"
"29.10000","2.42520","3579.35"
"29.20000","2.43376","3587.43"
"29.30000","2.44223","3595.25"
"29.40000","2.45029","3603.06"
"29.50000","2.45826","3611.21"
"29.60000","2.46662","3619"
"29.70000","2.47529","3627.97"
"29.80000","2.48396","3635.59"
"29.90000","2.49222","3643.14"
"30.00000","2.50029","3650.8"
"30.10000","2.50815","3657.98"
"30.20000","2.51641","3665.27"
"30.30000","2.52488","3664.55"
"30.40000","2.53345","3672.52"
"30.50000","2.54181","3680.26"
"30.60000","2.55038","3688.5"
"30.70000","2.55865","3696.14"
"30.80000","2.56671","3702.59"
"30.90000","2.57487","3710.28"
"31.00000","2.58334","3718.03"
"31.10000","2.59161","3725.38"
"31.20000","2.60017","3732.39"
"31.30000","2.60884","3739.52"
"31.40000","2.61711","3747.2"
"31.50000","2.62497","3754.32"
"31.60000","2.63303","3759.75"
"31.70000","2.64160","3767.14"
"31.80000","2.65027","3774.62"
"31.90000","2.65863","3782.09"
"32.00000","2.66710","3788.62"
"32.10000","2.67526","3795.53"
"32.20000","2.68323","3802.06"
"32.30000","2.69149","3808.72"
"32.40000","2.70016","3816.45"
"32.50000","2.70873","3823.1"
"32.60000","2.71709","3829.43"
"32.70000","2.72526","3836.21"
"32.80000","2.73352","3841.46"
"32.90000","2.74179","3847.67"
"33.00000","2.75005","3853.95"
"33.10000","2.75852","3860.81"
"33.20000","2.76689","3865.9"
"33.30000","2.77525","3872.38"
"33.40000","2.78352","3877.68"
"33.50000","2.79138","3883.17"
"33.60000","2.79985","3889"
"33.70000","2.80801","3895.36"
"33.80000","2.81668","3900.53"
"33.90000","2.82545","3906.78"
"34.00000","2.83391","3913.04"
"34.10000","2.84198","3917.63"
"34.20000","2.84974","3922.55"
"34.30000","2.85800","3927.68"
"34.40000","2.86657","3932.93"
"34.50000","2.87524","3938.53"
"34.60000","2.88381","3944"
"34.70000","2.89207","3949.08"
"34.80000","2.89993","3953.44"
"34.90000","2.90830","3957.8"
"35.00000","2.91677","3962.19"
"35.10000","2.92513","3967.05"
"35.20000","2.93350","3971.06"
"35.30000","2.94217","3974.33"
"35.40000","2.95063","3979.13"
"35.50000","2.95870","3982.53"
"35.60000","2.96666","3984.42"
"35.70000","2.97492","3987.4"
"35.80000","2.98339","3989.42"
"35.90000","2.99176","3992.69"
"36.00000","3.00022","3994.06"
"36.10000","3.00889","3992.94"
"36.20000","3.01685","3992.68"
"36.30000","3.02482","3993.35"
"36.40000","3.03308","3992.11"
"36.50000","3.04195","3992.57"
"36.60000","3.05052","3991.98"
"36.70000","3.05868","3989.33"
"36.80000","3.06695","3987.81"
"36.90000","3.07501","3978.91"
"37.00000","3.08308","3968.91"
"37.10000","3.09164","3952.9"
"37.20000","3.10051","3943"
"37.30000","3.10878","3931.21"
"37.40000","3.11674","3913.84"
"37.50000","3.12511","3884.39"
"37.58400","3.13226","3558.03"
"37.58800","3.13267","3230.07"
"37.59200","3.13307","2831.11"
"37.59600","3.13347","2400.55"
"37.59800","3.13367","2184.92"