File: Data_Processing/Tensile-Data/Sequence_19.csv
General : Start date,"10/22/2024 10:08 AM"
General : End date,"10/22/2024 10:08 AM"
Specimen notes : Specimen note 1,"blue, 200, batch 10, seq 19"
Test : Rate 1,"5.00000",mm/min

Time,Extension,Load
(s),(mm),(N)
"0.00000","0.00000","0.26232"
"0.10000","0.00121","-0.12787"
"0.20000","0.01078","12.20794"
"0.30000","0.02429","37.39826"
"0.40000","0.03306","54.16726"
"0.50000","0.04112","67.23566"
"0.60000","0.04959","82.27934"
"0.70000","0.05836","97.03859"
"0.80000","0.06703","111.978"
"0.90000","0.07560","126.81"
"1.00000","0.08386","140.581"
"1.10000","0.09202","154.071"
"1.20000","0.10029","167.613"
"1.30000","0.10845","175.589"
"1.40000","0.11692","185.347"
"1.50000","0.12539","195.099"
"1.60000","0.13385","206.096"
"1.70000","0.14182","217.501"
"1.80000","0.14988","230.459"
"1.90000","0.15855","243.201"
"2.00000","0.16691","256.311"
"2.10000","0.17498","268.738"
"2.20000","0.18355","282.885"
"2.30000","0.19231","296.349"
"2.40000","0.20058","310.432"
"2.50000","0.20874","323.909"
"2.60000","0.21681","337.254"
"2.70000","0.22507","349.823"
"2.80000","0.23324","363.243"
"2.90000","0.24190","377.162"
"3.00000","0.25037","390.535"
"3.10000","0.25874","404.532"
"3.20000","0.26690","417.775"
"3.30000","0.27486","429.968"
"3.40000","0.28333","443.072"
"3.50000","0.29190","456.827"
"3.60000","0.30047","471.092"
"3.70000","0.30883","484.838"
"3.80000","0.31700","498.997"
"3.90000","0.32506","511.424"
"4.00000","0.33332","524.335"
"4.10000","0.34179","537.148"
"4.20000","0.35026","551.28"
"4.30000","0.35862","565.022"
"4.40000","0.36669","578.732"
"4.50000","0.37525","591.858"
"4.60000","0.38352","604.585"
"4.70000","0.39158","617.526"
"4.80000","0.39985","631.483"
"4.90000","0.40842","644.749"
"5.00000","0.41698","659.087"
"5.10000","0.42555","673.243"
"5.20000","0.43382","686.703"
"5.30000","0.44168","699.509"
"5.40000","0.44984","712.182"
"5.50000","0.45841","725.085"
"5.60000","0.46708","738.774"
"5.70000","0.47544","751.192"
"5.80000","0.48381","764.847"
"5.90000","0.49197","777.831"
"6.00000","0.49994","790.534"
"6.10000","0.50830","803.367"
"6.20000","0.51677","816.994"
"6.30000","0.52534","830.128"
"6.40000","0.53370","843.215"
"6.50000","0.54207","856.24"
"6.60000","0.55013","869.517"
"6.70000","0.55809","880.328"
"6.80000","0.56636","894.42"
"6.90000","0.57503","908.573"
"7.00000","0.58380","922.632"
"7.10000","0.59206","934.808"
"7.20000","0.60043","947.322"
"7.30000","0.60869","960.359"
"7.40000","0.61666","972.975"
"7.50000","0.62482","985.9"
"7.60000","0.63339","999.716"
"7.70000","0.64216","1012.66"
"7.80000","0.65062","1025.07"
"7.90000","0.65869","1037.49"
"8.00000","0.66655","1050.34"
"8.10000","0.67481","1063.55"
"8.20000","0.68328","1075.96"
"8.30000","0.69185","1088.65"
"8.40000","0.70021","1101.5"
"8.50000","0.70868","1114.74"
"8.60000","0.71684","1126.84"
"8.70000","0.72481","1139.33"
"8.80000","0.73297","1152.48"
"8.90000","0.74164","1165.33"
"9.00000","0.75021","1178.07"
"9.10000","0.75857","1191.97"
"9.20000","0.76714","1205.28"
"9.30000","0.77530","1217.35"
"9.40000","0.78347","1229.28"
"9.50000","0.79163","1241.84"
"9.60000","0.79990","1254.46"
"9.70000","0.80867","1267.72"
"9.80000","0.81693","1280.44"
"9.90000","0.82530","1292.6"
"10.00000","0.83366","1304.88"
"10.10000","0.84143","1316.88"
"10.20000","0.84959","1328.88"
"10.30000","0.85836","1342.44"
"10.40000","0.86713","1355.57"
"10.50000","0.87559","1367.81"
"10.60000","0.88366","1380.74"
"10.70000","0.89192","1392.13"
"10.80000","0.89999","1404.22"
"10.90000","0.90825","1416.3"
"11.00000","0.91692","1428.7"
"11.10000","0.92539","1441.38"
"11.20000","0.93365","1453.61"
"11.30000","0.94171","1465.73"
"11.40000","0.94978","1477.87"
"11.50000","0.95814","1489.81"
"11.60000","0.96661","1502.35"
"11.70000","0.97518","1514.4"
"11.80000","0.98365","1526.57"
"11.90000","0.99211","1539.5"
"12.00000","1.00028","1551.41"
"12.10000","1.00844","1562.81"
"12.20000","1.01671","1574.5"
"12.30000","1.02487","1586.42"
"12.40000","1.03364","1598.69"
"12.50000","1.04211","1611.16"
"12.60000","1.05047","1622.35"
"12.70000","1.05833","1634.9"
"12.80000","1.06640","1646.06"
"12.90000","1.07486","1657.65"
"13.00000","1.08353","1670"
"13.10000","1.09210","1682.22"
"13.20000","1.10046","1694.12"
"13.30000","1.10883","1706.28"
"13.40000","1.11689","1716.97"
"13.50000","1.12496","1727.31"
"13.60000","1.13342","1738.32"
"13.70000","1.14189","1751.09"
"13.80000","1.15006","1762.09"
"13.90000","1.15832","1773.88"
"14.00000","1.16699","1785.06"
"14.10000","1.17505","1796.69"
"14.20000","1.18312","1807.22"
"14.30000","1.19138","1818.83"
"14.40000","1.20005","1831.18"
"14.50000","1.20862","1843.82"
"14.60000","1.21688","1854.19"
"14.70000","1.22515","1866.12"
"14.80000","1.23351","1876.85"
"14.90000","1.24158","1887.58"
"15.00000","1.24984","1898.81"
"15.10000","1.25861","1910.68"
"15.20000","1.26728","1922.03"
"15.30000","1.27534","1933.75"
"15.40000","1.28341","1945.19"
"15.50000","1.29187","1956.34"
"15.60000","1.30014","1967.26"
"15.70000","1.30830","1977.85"
"15.80000","1.31687","1989.84"
"15.90000","1.32544","2001.1"
"16.00000","1.33380","2012.7"
"16.10000","1.34187","2023.76"
"16.20000","1.35003","2035.53"
"16.30000","1.35830","2044.46"
"16.40000","1.36666","2056.46"
"16.50000","1.37523","2068.19"
"16.60000","1.38370","2079.22"
"16.70000","1.39216","2090.12"
"16.80000","1.40043","2100.4"
"16.90000","1.40839","2110.91"
"17.00000","1.41655","2122.72"
"17.10000","1.42502","2133.14"
"17.20000","1.43359","2144.07"
"17.30000","1.44185","2154.16"
"17.40000","1.45022","2165.34"
"17.50000","1.45828","2175.67"
"17.60000","1.46645","2185.49"
"17.70000","1.47491","2197.55"
"17.80000","1.48348","2208.3"
"17.90000","1.49185","2219.14"
"18.00000","1.50041","2229.15"
"18.10000","1.50878","2240.75"
"18.20000","1.51684","2250.63"
"18.30000","1.52501","2260.76"
"18.40000","1.53347","2271.02"
"18.50000","1.54184","2281.66"
"18.60000","1.55021","2291.83"
"18.70000","1.55887","2303.04"
"18.80000","1.56724","2314.04"
"18.90000","1.57510","2323.2"
"19.00000","1.58317","2333.53"
"19.10000","1.59173","2344.42"
"19.20000","1.60050","2355.73"
"19.30000","1.60867","2366.58"
"19.40000","1.61713","2376.12"
"19.50000","1.62550","2386.18"
"19.60000","1.63336","2396.64"
"19.70000","1.64142","2405.64"
"19.80000","1.64969","2416.93"
"19.90000","1.65876","2428.68"
"20.00000","1.66713","2438.47"
"20.10000","1.67519","2448.11"
"20.20000","1.68356","2455.15"
"20.30000","1.69192","2464.24"
"20.40000","1.70009","2474.24"
"20.50000","1.70835","2485.23"
"20.60000","1.71682","2495.51"
"20.70000","1.72539","2505.16"
"20.80000","1.73365","2515.66"
"20.90000","1.74161","2523.21"
"21.00000","1.74978","2530.8"
"21.10000","1.75804","2540.17"
"21.20000","1.76671","2549.57"
"21.30000","1.77538","2559.28"
"21.40000","1.78385","2569.25"
"21.50000","1.79211","2579.33"
"21.60000","1.80017","2589.34"
"21.70000","1.80814","2597.51"
"21.80000","1.81660","2603.98"
"21.90000","1.82537","2610.66"
"22.00000","1.83374","2620.98"
"22.10000","1.84210","2631.25"
"22.20000","1.85017","2642.07"
"22.30000","1.85813","2651.29"
"22.40000","1.86660","2661.24"
"22.50000","1.87496","2671.67"
"22.60000","1.88363","2681.89"
"22.70000","1.89210","2692.01"
"22.80000","1.90067","2702.55"
"22.90000","1.90863","2711.47"
"23.00000","1.91649","2720.7"
"23.10000","1.92476","2729.3"
"23.20000","1.93342","2738.85"
"23.30000","1.94179","2748.02"
"23.40000","1.95016","2756.95"
"23.50000","1.95862","2763.62"
"23.60000","1.96729","2769.24"
"23.70000","1.97505","2774.88"
"23.80000","1.98301","2783.96"
"23.90000","1.99178","2793.23"
"24.00000","2.00045","2803.35"
"24.10000","2.00851","2811.6"
"24.20000","2.01698","2789.27"
"24.30000","2.02535","2776.38"
"24.40000","2.03321","2786.76"
"24.50000","2.04157","2797.31"
"24.60000","2.05014","2807.47"
"24.70000","2.05881","2818.54"
"24.80000","2.06708","2828.5"
"24.90000","2.07504","2838.58"
"25.00000","2.08340","2847.95"
"25.10000","2.09187","2858.08"
"25.20000","2.10004","2866.87"
"25.30000","2.10850","2878.28"
"25.40000","2.11677","2887.38"
"25.50000","2.12523","2897.13"
"25.60000","2.13350","2907.21"
"25.70000","2.14146","2914.59"
"25.80000","2.14973","2923.89"
"25.90000","2.15829","2934.05"
"26.00000","2.16696","2943.5"
"26.10000","2.17543","2952.22"
"26.20000","2.18379","2960.53"
"26.30000","2.19196","2968.98"
"26.40000","2.20012","2978.31"
"26.50000","2.20819","2987.11"
"26.60000","2.21675","2996.37"
"26.70000","2.22542","3005.2"
"26.80000","2.23389","3015.12"
"26.90000","2.24205","3023.23"
"27.00000","2.25002","3032.68"
"27.10000","2.25818","3040.59"
"27.20000","2.26685","3050.37"
"27.30000","2.27511","3058.6"
"27.40000","2.28358","3067.34"
"27.50000","2.29205","3076.87"
"27.60000","2.30031","3085.55"
"27.70000","2.30848","3094.33"
"27.80000","2.31664","3101.81"
"27.90000","2.32501","3110.63"
"28.00000","2.33337","3118.07"
"28.10000","2.34164","3125.88"
"28.20000","2.35031","3136.73"
"28.30000","2.35887","3145.05"
"28.40000","2.36704","3152.56"
"28.50000","2.37500","3160.38"
"28.60000","2.38306","3168.17"
"28.70000","2.39193","3177.46"
"28.80000","2.40040","3186.31"
"28.90000","2.40856","3193.53"
"29.00000","2.41693","3201.7"
"29.10000","2.42540","3210.26"
"29.20000","2.43326","3217.98"
"29.30000","2.44152","3225.77"
"29.40000","2.45039","3233.56"
"29.50000","2.45886","3241.71"
"29.60000","2.46703","3249.55"
"29.70000","2.47519","3256.22"
"29.80000","2.48366","3264.54"
"29.90000","2.49182","3271.85"
"30.00000","2.50009","3279.47"
"30.10000","2.50865","3286.53"
"30.20000","2.51692","3294.17"
"30.30000","2.52518","3300.51"
"30.40000","2.53355","3307.36"
"30.50000","2.54151","3313.92"
"30.60000","2.54978","3322.16"
"30.70000","2.55804","3328.84"
"30.80000","2.56691","3336.97"
"30.90000","2.57538","3344.68"
"31.00000","2.58384","3352.43"
"31.10000","2.59181","3358.71"
"31.20000","2.59997","3365.02"
"31.30000","2.60804","3371.18"
"31.40000","2.61680","3378.95"
"31.50000","2.62547","3386.81"
"31.60000","2.63394","3393.65"
"31.70000","2.64200","3400.05"
"31.80000","2.64997","3406.13"
"31.90000","2.65813","3413.03"
"32.00000","2.66660","3419.24"
"32.10000","2.67516","3427.29"
"32.20000","2.68363","3433.64"
"32.30000","2.69220","3440.87"
"32.40000","2.70056","3447.42"
"32.50000","2.70843","3452.65"
"32.60000","2.71669","3459.47"
"32.70000","2.72496","3465.22"
"32.80000","2.73362","3471.07"
"32.90000","2.74189","3469.44"
"33.00000","2.75046","3473.18"
"33.10000","2.75892","3477.17"
"33.20000","2.76679","3481.5"
"33.30000","2.77475","3486.13"
"33.40000","2.78321","3492.13"
"33.50000","2.79188","3496.89"
"33.60000","2.80035","3501.43"
"33.70000","2.80861","3506.8"
"33.80000","2.81668","3511.41"
"33.90000","2.82504","3516.63"
"34.00000","2.83311","3456.42"
"34.10000","2.84168","3466.35"
"34.20000","2.85044","3474.3"
"34.30000","2.85871","3482.62"
"34.40000","2.86667","3488.87"
"34.50000","2.87514","3497.63"
"34.60000","2.88350","3503.34"
"34.70000","2.89187","3511.08"
"34.80000","2.90034","3517.89"
"34.90000","2.90880","3523.58"
"35.00000","2.91707","3530.46"
"35.10000","2.92523","3536.27"
"35.20000","2.93340","3542.14"
"35.30000","2.94166","3548.8"
"35.40000","2.94993","3554.49"
"35.50000","2.95849","3515.73"
"35.60000","2.96706","3526.9"
"35.70000","2.97553","3534.04"
"35.80000","2.98389","3541.1"
"35.90000","2.99186","3548.37"
"36.00000","2.99972","3554.65"
"36.10000","3.00819","3562.03"
"36.20000","3.01695","3568.9"
"36.30000","3.02542","3575.6"
"36.40000","3.03359","3581.28"
"36.50000","3.04175","3587.37"
"36.60000","3.04981","3593.35"
"36.70000","3.05808","3598.22"
"36.80000","3.06665","3604.08"
"36.90000","3.07542","3610.79"
"37.00000","3.08368","3617.01"
"37.10000","3.09215","3622.47"
"37.20000","3.10021","3616.93"
"37.30000","3.10827","3619.71"
"37.40000","3.11664","3622.21"
"37.50000","3.12511","3625.94"
"37.60000","3.13337","3629.47"
"37.70000","3.14204","3634.8"
"37.80000","3.15061","3639.06"
"37.90000","3.15877","3643.53"
"38.00000","3.16663","3645.5"
"38.10000","3.17490","3609.17"
"38.20000","3.18357","3604.02"
"38.30000","3.19213","3605.62"
"38.40000","3.20030","3608"
"38.50000","3.20866","3612.25"
"38.60000","3.21673","3616.26"
"38.70000","3.22469","3619.57"
"38.80000","3.23316","3623.38"
"38.90000","3.24183","3629.52"
"39.00000","3.25049","3634.48"
"39.10000","3.25856","3639.45"
"39.20000","3.26642","3643.47"
"39.30000","3.27509","3649.91"
"39.40000","3.28335","3654.86"
"39.50000","3.29172","3659.82"
"39.60000","3.30018","3664.28"
"39.70000","3.30865","3669.33"
"39.80000","3.31712","3674.74"
"39.90000","3.32518","3679.85"
"40.00000","3.33335","3684.86"
"40.10000","3.34171","3689.31"
"40.20000","3.35008","3693.6"
"40.30000","3.35865","3698.2"
"40.40000","3.36731","3701.69"
"40.50000","3.37558","3706.21"
"40.60000","3.38374","3709.76"
"40.70000","3.39171","3712.4"
"40.80000","3.39977","3715.97"
"40.90000","3.40834","3720.24"
"41.00000","3.41711","3725.23"
"41.10000","3.42557","3729.25"
"41.20000","3.43364","3733.71"
"41.30000","3.44170","3735.54"
"41.40000","3.44996","3738.52"
"41.50000","3.45833","3741.56"
"41.60000","3.46670","3745.86"
"41.70000","3.47536","3749.89"
"41.80000","3.48363","3753.81"
"41.90000","3.49200","3755.94"
"42.00000","3.50006","3758.3"
"42.10000","3.50812","3760.94"
"42.20000","3.51659","3761.98"
"42.30000","3.52526","3767.34"
"42.40000","3.53342","3770.62"
"42.50000","3.54189","3772.05"
"42.60000","3.55056","3774.52"
"42.70000","3.55872","3776.23"
"42.80000","3.56648","3777.86"
"42.90000","3.57485","3778.61"
"43.00000","3.58362","3780.7"
"43.10000","3.59198","3782.87"
"43.20000","3.60015","3784.14"
"43.30000","3.60861","3785.36"
"43.40000","3.61678","3786.16"
"43.50000","3.62484","3786.21"
"43.60000","3.63331","3784.69"
"43.70000","3.64218","3785.52"
"43.80000","3.65054","3785.31"
"43.90000","3.65871","3784.37"
"44.00000","3.66687","3782.28"
"44.10000","3.67524","3780.08"
"44.20000","3.68350","3776.5"
"44.30000","3.69177","3773.31"
"44.40000","3.70024","3770.11"
"44.50000","3.70870","3765.19"
"44.60000","3.71717","3759.84"
"44.70000","3.72503","3752.97"
"44.80000","3.73299","3743.24"
"44.90000","3.74136","3734.39"
"45.00000","3.75013","3723.09"
"45.10000","3.75859","3708.22"
"45.20000","3.76706","3686.78"
"45.30000","3.77563","3652.65"
"45.40000","3.78379","3562.68"
"45.45200","3.78793","3310.07"
"45.45800","3.78843","3008.56"
"45.46200","3.78883","2685.13"
"45.46600","3.78924","2312.29"
"45.46800","3.78944","2119.05"