File: Data_Processing/Tensile-Data/Sequence_34.csv
General : Start date,"10/29/2024 10:30 AM"
General : End date,"10/29/2024 10:31 AM"
Specimen notes : Specimen note 1,"Day 2, green, 230, batch 6, seq 34"
Test : Rate 1,"5.00000",mm/min

Time,Extension,Load
(s),(mm),(N)
"0.00000","0.00000","0.22193"
"0.10000","0.00121","-0.69793"
"0.20000","0.00887","7.93729"
"0.30000","0.02258","32.69276"
"0.40000","0.03246","51.90243"
"0.50000","0.04042","65.47073"
"0.60000","0.04888","80.07642"
"0.70000","0.05775","93.18870"
"0.80000","0.06662","108.824"
"0.90000","0.07499","122.545"
"1.00000","0.08346","136.823"
"1.10000","0.09182","151.195"
"1.20000","0.09989","162.553"
"1.30000","0.10815","175.239"
"1.40000","0.11662","189.959"
"1.50000","0.12529","202.369"
"1.60000","0.13365","216.309"
"1.70000","0.14182","228.295"
"1.80000","0.15038","243.202"
"1.90000","0.15845","256.631"
"2.00000","0.16661","269.475"
"2.10000","0.17518","282.631"
"2.20000","0.18385","296.875"
"2.30000","0.19211","310.596"
"2.40000","0.20058","324.155"
"2.50000","0.20864","336.781"
"2.60000","0.21671","349.753"
"2.70000","0.22497","362.634"
"2.80000","0.23344","375.217"
"2.90000","0.24211","389.65"
"3.00000","0.25047","403.013"
"3.10000","0.25854","415.13"
"3.20000","0.26660","427.75"
"3.30000","0.27486","440.45"
"3.40000","0.28323","454.051"
"3.50000","0.29170","466.65"
"3.60000","0.30026","479.474"
"3.70000","0.30853","492.048"
"3.80000","0.31679","505.17"
"3.90000","0.32486","517.665"
"4.00000","0.33312","529.701"
"4.10000","0.34159","542.911"
"4.20000","0.35006","554.591"
"4.30000","0.35862","567.647"
"4.40000","0.36679","579.728"
"4.50000","0.37515","592.141"
"4.60000","0.38342","604.868"
"4.70000","0.39168","617.545"
"4.80000","0.39995","629.022"
"4.90000","0.40862","642.153"
"5.00000","0.41708","654.592"
"5.10000","0.42535","666.355"
"5.20000","0.43361","678.693"
"5.30000","0.44168","690.899"
"5.40000","0.44994","701.615"
"5.50000","0.45851","714.323"
"5.60000","0.46678","727.205"
"5.70000","0.47504","739.426"
"5.80000","0.48371","750.607"
"5.90000","0.49187","762.826"
"6.00000","0.49994","773.815"
"6.10000","0.50820","784.547"
"6.20000","0.51667","796.616"
"6.30000","0.52524","808.518"
"6.40000","0.53350","819.576"
"6.50000","0.54187","830.764"
"6.60000","0.55003","841.922"
"6.70000","0.55799","853.088"
"6.80000","0.56626","864.346"
"6.90000","0.57513","877"
"7.00000","0.58360","888.541"
"7.10000","0.59156","898.498"
"7.20000","0.59982","909.421"
"7.30000","0.60849","921.166"
"7.40000","0.61686","932.67"
"7.50000","0.62512","942.962"
"7.60000","0.63369","953.963"
"7.70000","0.64216","965.491"
"7.80000","0.65042","976.331"
"7.90000","0.65859","985.955"
"8.00000","0.66655","996.177"
"8.10000","0.67481","1006.37"
"8.20000","0.68328","1017.15"
"8.30000","0.69185","1028.37"
"8.40000","0.70031","1038.7"
"8.50000","0.70868","1049.35"
"8.60000","0.71695","1059.2"
"8.70000","0.72501","1069.88"
"8.80000","0.73327","1078.82"
"8.90000","0.74144","1089.6"
"9.00000","0.75031","1100.55"
"9.10000","0.75877","1110.47"
"9.20000","0.76694","1119.57"
"9.30000","0.77510","1130.31"
"9.40000","0.78307","1140.24"
"9.50000","0.79143","1150.42"
"9.60000","0.79990","1159.84"
"9.70000","0.80847","1170.78"
"9.80000","0.81693","1180.42"
"9.90000","0.82520","1190.84"
"10.00000","0.83336","1200"
"10.10000","0.84153","1209.22"
"10.20000","0.84979","1219.11"
"10.30000","0.85836","1228.86"
"10.40000","0.86693","1239.48"
"10.50000","0.87539","1249.08"
"10.60000","0.88386","1258.92"
"10.70000","0.89192","1268.54"
"10.80000","0.89989","1277.26"
"10.90000","0.90835","1286.87"
"11.00000","0.91702","1298.42"
"11.10000","0.92539","1306.51"
"11.20000","0.93365","1314.63"
"11.30000","0.94192","1324.16"
"11.40000","0.94998","1331.97"
"11.50000","0.95804","1340.43"
"11.60000","0.96651","1349.69"
"11.70000","0.97528","1359.03"
"11.80000","0.98375","1368.45"
"11.90000","0.99191","1377.08"
"12.00000","0.99997","1385.41"
"12.10000","1.00814","1394.14"
"12.20000","1.01620","1401.92"
"12.30000","1.02477","1410.81"
"12.40000","1.03344","1419.95"
"12.50000","1.04180","1429.2"
"12.60000","1.05007","1437.3"
"12.70000","1.05833","1445.31"
"12.80000","1.06650","1453.28"
"12.90000","1.07486","1461.67"
"13.00000","1.08343","1469.56"
"13.10000","1.09200","1478.84"
"13.20000","1.10046","1486.6"
"13.30000","1.10873","1493.71"
"13.40000","1.11679","1501.72"
"13.50000","1.12486","1508.32"
"13.60000","1.13302","1517.71"
"13.70000","1.14159","1525.79"
"13.80000","1.15066","1533.59"
"13.90000","1.15872","1542.38"
"14.00000","1.16669","1550.37"
"14.10000","1.17495","1557.9"
"14.20000","1.18322","1566.06"
"14.30000","1.19168","1572.45"
"14.40000","1.20035","1580.29"
"14.50000","1.20872","1589.11"
"14.60000","1.21708","1596.9"
"14.70000","1.22515","1604.24"
"14.80000","1.23311","1611.42"
"14.90000","1.24137","1618.16"
"15.00000","1.25004","1626.07"
"15.10000","1.25831","1634.59"
"15.20000","1.26667","1642.16"
"15.30000","1.27544","1649.77"
"15.40000","1.28371","1657.29"
"15.50000","1.29157","1665.12"
"15.60000","1.29963","1671.87"
"15.70000","1.30820","1679.77"
"15.80000","1.31687","1688.59"
"15.90000","1.32534","1695.93"
"16.00000","1.33370","1702.97"
"16.10000","1.34176","1712.02"
"16.20000","1.35003","1718.05"
"16.30000","1.35819","1725.24"
"16.40000","1.36686","1733.21"
"16.50000","1.37573","1741.35"
"16.60000","1.38380","1749.31"
"16.70000","1.39176","1755.67"
"16.80000","1.40023","1764.18"
"16.90000","1.40849","1771.26"
"17.00000","1.41665","1777.73"
"17.10000","1.42502","1785.32"
"17.20000","1.43359","1793.74"
"17.30000","1.44195","1802.06"
"17.40000","1.45012","1810.39"
"17.50000","1.45828","1817.22"
"17.60000","1.46655","1825.22"
"17.70000","1.47491","1832.09"
"17.80000","1.48328","1839.97"
"17.90000","1.49185","1848.82"
"18.00000","1.50021","1856.96"
"18.10000","1.50858","1864.05"
"18.20000","1.51664","1871.55"
"18.30000","1.52471","1878.24"
"18.40000","1.53327","1886.88"
"18.50000","1.54194","1895.53"
"18.60000","1.55041","1902.04"
"18.70000","1.55867","1911"
"18.80000","1.56684","1917.6"
"18.90000","1.57490","1925.14"
"19.00000","1.58327","1932.65"
"19.10000","1.59173","1939.53"
"19.20000","1.60030","1948.7"
"19.30000","1.60867","1956.74"
"19.40000","1.61713","1964.11"
"19.50000","1.62530","1972.41"
"19.60000","1.63346","1978.56"
"19.70000","1.64163","1986.95"
"19.80000","1.64989","1994.21"
"19.90000","1.65836","2002.84"
"20.00000","1.66693","2009.96"
"20.10000","1.67549","2018.32"
"20.20000","1.68356","2025.57"
"20.30000","1.69152","2032.5"
"20.40000","1.69968","2040.22"
"20.50000","1.70845","2049.01"
"20.60000","1.71682","2057.34"
"20.70000","1.72518","2064.5"
"20.80000","1.73365","2071.34"
"20.90000","1.74171","2079.78"
"21.00000","1.74978","2085.55"
"21.10000","1.75814","2093.56"
"21.20000","1.76701","2101.31"
"21.30000","1.77538","2110.05"
"21.40000","1.78364","2117.1"
"21.50000","1.79181","2124.31"
"21.60000","1.80017","2132.95"
"21.70000","1.80834","2139.42"
"21.80000","1.81670","2146.99"
"21.90000","1.82537","2155.28"
"22.00000","1.83374","2163.54"
"22.10000","1.84200","2170.9"
"22.20000","1.85027","2179.01"
"22.30000","1.85813","2185.28"
"22.40000","1.86629","2193.39"
"22.50000","1.87476","2201.21"
"22.60000","1.88343","2209.43"
"22.70000","1.89200","2217.36"
"22.80000","1.90036","2224.64"
"22.90000","1.90853","2232.32"
"23.00000","1.91649","2239.62"
"23.10000","1.92465","2246.49"
"23.20000","1.93312","2254.62"
"23.30000","1.94169","2263.55"
"23.40000","1.95026","2270.42"
"23.50000","1.95852","2278.21"
"23.60000","1.96658","2285.29"
"23.70000","1.97475","2292.42"
"23.80000","1.98332","2300.14"
"23.90000","1.99198","2308.48"
"24.00000","2.00035","2315.7"
"24.10000","2.00862","2323.91"
"24.20000","2.01708","2331.4"
"24.30000","2.02535","2339.17"
"24.40000","2.03341","2346.13"
"24.50000","2.04178","2353.58"
"24.60000","2.05024","2362.06"
"24.70000","2.05851","2369.4"
"24.80000","2.06687","2377.14"
"24.90000","2.07554","2384.79"
"25.00000","2.08340","2391.66"
"25.10000","2.09127","2399.32"
"25.20000","2.09963","2406.58"
"25.30000","2.10850","2415.02"
"25.40000","2.11697","2422.98"
"25.50000","2.12544","2431.38"
"25.60000","2.13350","2438.55"
"25.70000","2.14136","2445.93"
"25.80000","2.14963","2453.6"
"25.90000","2.15829","2461.96"
"26.00000","2.16696","2469.79"
"26.10000","2.17533","2477.45"
"26.20000","2.18329","2484.63"
"26.30000","2.19156","2491.66"
"26.40000","2.19992","2500.16"
"26.50000","2.20839","2508.13"
"26.60000","2.21696","2515.99"
"26.70000","2.22552","2524.16"
"26.80000","2.23369","2530.34"
"26.90000","2.24205","2538.54"
"27.00000","2.25012","2544.86"
"27.10000","2.25828","2553.37"
"27.20000","2.26675","2561.1"
"27.30000","2.27501","2567.76"
"27.40000","2.28358","2576.29"
"27.50000","2.29205","2583.92"
"27.60000","2.30031","2591.17"
"27.70000","2.30838","2599.02"
"27.80000","2.31644","2605.76"
"27.90000","2.32491","2613.69"
"28.00000","2.33347","2621.27"
"28.10000","2.34194","2628.85"
"28.20000","2.35021","2636.21"
"28.30000","2.35837","2643.94"
"28.40000","2.36643","2651.62"
"28.50000","2.37480","2658.76"
"28.60000","2.38327","2666.34"
"28.70000","2.39183","2675.14"
"28.80000","2.40030","2682.97"
"28.90000","2.40846","2690.82"
"29.00000","2.41693","2698.25"
"29.10000","2.42509","2705.83"
"29.20000","2.43336","2712.95"
"29.30000","2.44183","2720.34"
"29.40000","2.45009","2728.94"
"29.50000","2.45856","2736.67"
"29.60000","2.46723","2744.83"
"29.70000","2.47549","2751.11"
"29.80000","2.48335","2758.88"
"29.90000","2.49152","2765.3"
"30.00000","2.49998","2772.5"
"30.10000","2.50875","2781.42"
"30.20000","2.51692","2789.49"
"30.30000","2.52508","2795.94"
"30.40000","2.53375","2804.51"
"30.50000","2.54191","2812.04"
"30.60000","2.54988","2818.54"
"30.70000","2.55865","2827.22"
"30.80000","2.56711","2835.34"
"30.90000","2.57518","2842.32"
"31.00000","2.58314","2849.14"
"31.10000","2.59161","2856.81"
"31.20000","2.59987","2864.49"
"31.30000","2.60814","2872.02"
"31.40000","2.61670","2879.84"
"31.50000","2.62507","2887.47"
"31.60000","2.63354","2895.12"
"31.70000","2.64180","2902.45"
"31.80000","2.64986","2909.66"
"31.90000","2.65833","2917.18"
"32.00000","2.66650","2924.73"
"32.10000","2.67516","2933.08"
"32.20000","2.68373","2941.22"
"32.30000","2.69210","2947.61"
"32.40000","2.70036","2955.13"
"32.50000","2.70832","2963.05"
"32.60000","2.71649","2969.41"
"32.70000","2.72506","2976.78"
"32.80000","2.73372","2985.66"
"32.90000","2.74229","2993.27"
"33.00000","2.75046","2999.53"
"33.10000","2.75852","3007.07"
"33.20000","2.76668","3014.61"
"33.30000","2.77495","3021.68"
"33.40000","2.78332","3029.27"
"33.50000","2.79168","3038.19"
"33.60000","2.80025","3045.71"
"33.70000","2.80872","3052.84"
"33.80000","2.81668","3059.06"
"33.90000","2.82474","3066.77"
"34.00000","2.83311","3073.96"
"34.10000","2.84157","3082.02"
"34.20000","2.84974","3089.67"
"34.30000","2.85810","3096.87"
"34.40000","2.86687","3104.64"
"34.50000","2.87504","3111.65"
"34.60000","2.88300","3118.65"
"34.70000","2.89127","3125.89"
"34.80000","2.90014","3134.12"
"34.90000","2.90870","3141.84"
"35.00000","2.91697","3148.63"
"35.10000","2.92554","3156.12"
"35.20000","2.93340","3163.03"
"35.30000","2.94146","3169.31"
"35.40000","2.94983","3177.46"
"35.50000","2.95880","3185.28"
"35.60000","2.96716","3192.53"
"35.70000","2.97513","3200.33"
"35.80000","2.98339","3206.35"
"35.90000","2.99176","3213.51"
"36.00000","3.00012","3221.65"
"36.10000","3.00849","3229.65"
"36.20000","3.01695","3237.15"
"36.30000","3.02542","3244.68"
"36.40000","3.03359","3251.75"
"36.50000","3.04175","3259.37"
"36.60000","3.04981","3265.69"
"36.70000","3.05828","3273.06"
"36.80000","3.06644","3280.72"
"36.90000","3.07511","3288.41"
"37.00000","3.08378","3295.95"
"37.10000","3.09205","3303.55"
"37.20000","3.10021","3310.43"
"37.30000","3.10817","3316.58"
"37.40000","3.11654","3323.65"
"37.50000","3.12501","3331.46"
"37.60000","3.13367","3339.48"
"37.70000","3.14194","3346.89"
"37.80000","3.15010","3353.09"
"37.90000","3.15817","3360.81"
"38.00000","3.16653","3367.27"
"38.10000","3.17500","3375.03"
"38.20000","3.18347","3381.66"
"38.30000","3.19193","3389.26"
"38.40000","3.20040","3397.18"
"38.50000","3.20866","3403.57"
"38.60000","3.21663","3410.94"
"38.70000","3.22489","3417.42"
"38.80000","3.23336","3424.92"
"38.90000","3.24162","3432.4"
"39.00000","3.25009","3438.91"
"39.10000","3.25876","3446.53"
"39.20000","3.26712","3453.7"
"39.30000","3.27499","3460.76"
"39.40000","3.28305","3466.88"
"39.50000","3.29162","3475.1"
"39.60000","3.30029","3482.43"
"39.70000","3.30855","3488.87"
"39.80000","3.31692","3496.24"
"39.90000","3.32528","3503.41"
"40.00000","3.33325","3510.26"
"40.10000","3.34151","3515.91"
"40.20000","3.35018","3524.3"
"40.30000","3.35885","3531.95"
"40.40000","3.36711","3538.66"
"40.50000","3.37507","3544.73"
"40.60000","3.38344","3551.11"
"40.70000","3.39171","3558.18"
"40.80000","3.39997","3564.93"
"40.90000","3.40854","3571.16"
"41.00000","3.41711","3578.88"
"41.10000","3.42527","3585.65"
"41.20000","3.43354","3592.02"
"41.30000","3.44170","3597.56"
"41.40000","3.44986","3604.46"
"41.50000","3.45833","3610.61"
"41.60000","3.46700","3618.59"
"41.70000","3.47547","3626.36"
"41.80000","3.48383","3632.07"
"41.90000","3.49189","3638.36"
"42.00000","3.49996","3644.79"
"42.10000","3.50792","3650.25"
"42.20000","3.51649","3657.37"
"42.30000","3.52516","3664.8"
"42.40000","3.53372","3671.13"
"42.50000","3.54199","3677.78"
"42.60000","3.55015","3684.43"
"42.70000","3.55842","3690.29"
"42.80000","3.56668","3697.01"
"42.90000","3.57505","3703.39"
"43.00000","3.58352","3709.43"
"43.10000","3.59188","3716.45"
"43.20000","3.60035","3722.52"
"43.30000","3.60861","3730.17"
"43.40000","3.61658","3735.02"
"43.50000","3.62484","3741.18"
"43.60000","3.63341","3747.28"
"43.70000","3.64167","3753.21"
"43.80000","3.65014","3760.03"
"43.90000","3.65881","3766.29"
"44.00000","3.66707","3771.68"
"44.10000","3.67494","3776.72"
"44.20000","3.68310","3781.98"
"44.30000","3.69177","3787.66"
"44.40000","3.70024","3793.92"
"44.50000","3.70850","3799.42"
"44.60000","3.71666","3804.89"
"44.70000","3.72503","3810.51"
"44.80000","3.73309","3815.77"
"44.90000","3.74136","3821.04"
"45.00000","3.75023","3826.81"
"45.10000","3.75880","3833.35"
"45.20000","3.76696","3837.7"
"45.30000","3.77502","3842.39"
"45.40000","3.78319","3847.21"
"45.50000","3.79155","3851.69"
"45.60000","3.80012","3856.69"
"45.70000","3.80859","3861.7"
"45.80000","3.81716","3866.94"
"45.90000","3.82532","3871.19"
"46.00000","3.83359","3875.07"
"46.10000","3.84165","3879.48"
"46.20000","3.85012","3883.04"
"46.30000","3.85828","3886.71"
"46.40000","3.86685","3891.12"
"46.50000","3.87531","3895.48"
"46.60000","3.88378","3899.01"
"46.70000","3.89205","3901.86"
"46.80000","3.90001","3905.55"
"46.90000","3.90817","3906.83"
"47.00000","3.91654","3909.78"
"47.10000","3.92541","3912.96"
"47.20000","3.93398","3915.42"
"47.30000","3.94194","3915.97"
"47.40000","3.95000","3917.69"
"47.50000","3.95807","3917.7"
"47.60000","3.96643","3918.8"
"47.70000","3.97500","3919.87"
"47.80000","3.98367","3920.31"
"47.90000","3.99193","3920.26"
"48.00000","4.00030","3919.67"
"48.10000","4.00846","3917.21"
"48.20000","4.01653","3915.64"
"48.30000","4.02489","3913.34"
"48.40000","4.03336","3910.24"
"48.50000","4.04162","3907.34"
"48.60000","4.05039","3902.89"
"48.70000","4.05886","3898.02"
"48.80000","4.06682","3890.17"
"48.90000","4.07478","3881.88"
"49.00000","4.08315","3872.95"
"49.10000","4.09192","3861.69"
"49.20000","4.10049","3846.69"
"49.30000","4.10885","3825.82"
"49.40000","4.11722","3791.91"
"49.49200","4.12448","3436.19"
"49.49600","4.12488","3095.18"
"49.50000","4.12528","2693.78"
"49.50400","4.12568","2265.95"