File: Data_Processing/Tensile-Data/Sequence_23.csv
General : Start date,"10/29/2024 10:01 AM"
General : End date,"10/29/2024 10:02 AM"
Specimen notes : Specimen note 1,"Day 2, green, 215, batch 4, seq 23"
Test : Rate 1,"5.00000",mm/min

Time,Extension,Load
(s),(mm),(N)
"0.00000","0.00000","0.41978"
"0.10000","0.00212","0.17297"
"0.20000","0.00947","0.39705"
"0.30000","0.01663","2.45694"
"0.40000","0.02278","7.44878"
"0.50000","0.03699","30.82445"
"0.60000","0.04858","52.23818"
"0.70000","0.05665","65.70148"
"0.80000","0.06572","79.13815"
"0.90000","0.07489","92.36249"
"1.00000","0.08346","106.339"
"1.10000","0.09182","119.301"
"1.20000","0.10009","131.64"
"1.30000","0.10825","143.111"
"1.40000","0.11682","154.429"
"1.50000","0.12539","166.001"
"1.60000","0.13385","178.379"
"1.70000","0.14202","189.309"
"1.80000","0.15018","200.442"
"1.90000","0.15865","210.207"
"2.00000","0.16691","220.59"
"2.10000","0.17498","232.133"
"2.20000","0.18344","240.833"
"2.30000","0.19211","251.012"
"2.40000","0.20058","260.309"
"2.50000","0.20874","269.951"
"2.60000","0.21661","278.552"
"2.70000","0.22487","287.932"
"2.80000","0.23324","298.16"
"2.90000","0.24180","308.286"
"3.00000","0.25047","317.379"
"3.10000","0.25894","327.562"
"3.20000","0.26710","336.4"
"3.30000","0.27507","345.062"
"3.40000","0.28333","353.056"
"3.50000","0.29190","362.379"
"3.60000","0.30057","371.549"
"3.70000","0.30903","380.703"
"3.80000","0.31740","388.735"
"3.90000","0.32536","394.961"
"4.00000","0.33353","401.776"
"4.10000","0.34169","408.513"
"4.20000","0.35036","416.206"
"4.30000","0.35872","422.748"
"4.40000","0.36699","429.798"
"4.50000","0.37546","436.45"
"4.60000","0.38382","444.275"
"4.70000","0.39178","450.433"
"4.80000","0.39995","458.344"
"4.90000","0.40862","465.421"
"5.00000","0.41708","473.151"
"5.10000","0.42545","480.092"
"5.20000","0.43372","487.025"
"5.30000","0.44188","493.717"
"5.40000","0.44994","500.91"
"5.50000","0.45821","507.923"
"5.60000","0.46688","515.097"
"5.70000","0.47554","522.129"
"5.80000","0.48401","528.895"
"5.90000","0.49228","536.079"
"6.00000","0.50034","542.899"
"6.10000","0.50840","548.78"
"6.20000","0.51677","556.2"
"6.30000","0.52544","563.317"
"6.40000","0.53380","570.69"
"6.50000","0.54217","577.489"
"6.60000","0.55043","584.257"
"6.70000","0.55840","591.919"
"6.80000","0.56666","597.707"
"6.90000","0.57513","605.883"
"7.00000","0.58370","612.738"
"7.10000","0.59216","618.712"
"7.20000","0.60023","626.461"
"7.30000","0.60869","633.186"
"7.40000","0.61696","640.37"
"7.50000","0.62512","646.986"
"7.60000","0.63349","654.147"
"7.70000","0.64206","660.842"
"7.80000","0.65052","668.786"
"7.90000","0.65869","675.611"
"8.00000","0.66675","682.136"
"8.10000","0.67491","689.274"
"8.20000","0.68338","696.357"
"8.30000","0.69185","703.875"
"8.40000","0.70031","711.088"
"8.50000","0.70878","717.857"
"8.60000","0.71715","726.035"
"8.70000","0.72521","732.269"
"8.80000","0.73327","738.314"
"8.90000","0.74174","745.864"
"9.00000","0.75021","752.928"
"9.10000","0.75847","759.462"
"9.20000","0.76704","767.207"
"9.30000","0.77551","775.034"
"9.40000","0.78347","781.404"
"9.50000","0.79173","788.724"
"9.60000","0.80020","795.749"
"9.70000","0.80877","803.265"
"9.80000","0.81703","809.559"
"9.90000","0.82520","817.904"
"10.00000","0.83376","825.163"
"10.10000","0.84203","831.761"
"10.20000","0.84999","838.01"
"10.30000","0.85836","844.689"
"10.40000","0.86713","853.86"
"10.50000","0.87559","859.744"
"10.60000","0.88376","867.658"
"10.70000","0.89212","873.552"
"10.80000","0.90029","881.205"
"10.90000","0.90845","888.302"
"11.00000","0.91682","895.32"
"11.10000","0.92539","902.274"
"11.20000","0.93355","909.485"
"11.30000","0.94192","917.133"
"11.40000","0.95018","924.108"
"11.50000","0.95825","929.959"
"11.60000","0.96661","937.779"
"11.70000","0.97508","945.199"
"11.80000","0.98365","952.883"
"11.90000","0.99211","960.111"
"12.00000","1.00038","967.473"
"12.10000","1.00854","973.304"
"12.20000","1.01660","980.794"
"12.30000","1.02497","988.202"
"12.40000","1.03364","995.06"
"12.50000","1.04221","1003.1"
"12.60000","1.05057","1010.38"
"12.70000","1.05874","1016.4"
"12.80000","1.06680","1023.14"
"12.90000","1.07517","1029.97"
"13.00000","1.08343","1037.66"
"13.10000","1.09180","1045.07"
"13.20000","1.10046","1051.36"
"13.30000","1.10893","1058.65"
"13.40000","1.11730","1065.68"
"13.50000","1.12526","1071.66"
"13.60000","1.13322","1077.74"
"13.70000","1.14189","1084.75"
"13.80000","1.15006","1093.11"
"13.90000","1.15812","1098.52"
"14.00000","1.16648","1105.29"
"14.10000","1.17505","1111.78"
"14.20000","1.18322","1119.04"
"14.30000","1.19138","1125.2"
"14.40000","1.19995","1133.27"
"14.50000","1.20862","1139.78"
"14.60000","1.21698","1145.77"
"14.70000","1.22545","1152.87"
"14.80000","1.23381","1159.62"
"14.90000","1.24168","1166.2"
"15.00000","1.24974","1172.31"
"15.10000","1.25851","1179.5"
"15.20000","1.26728","1186.58"
"15.30000","1.27534","1192.38"
"15.40000","1.28351","1198.68"
"15.50000","1.29197","1204.77"
"15.60000","1.30034","1211.25"
"15.70000","1.30860","1217.35"
"15.80000","1.31717","1224.36"
"15.90000","1.32554","1231.13"
"16.00000","1.33380","1238.11"
"16.10000","1.34217","1244.89"
"16.20000","1.35013","1250.53"
"16.30000","1.35840","1257.36"
"16.40000","1.36666","1264.16"
"16.50000","1.37503","1270.6"
"16.60000","1.38370","1277.01"
"16.70000","1.39226","1283.5"
"16.80000","1.40053","1289.56"
"16.90000","1.40859","1295.68"
"17.00000","1.41655","1302.64"
"17.10000","1.42502","1308.95"
"17.20000","1.43379","1316.21"
"17.30000","1.44226","1322.31"
"17.40000","1.45042","1330.13"
"17.50000","1.45848","1336.51"
"17.60000","1.46655","1343.66"
"17.70000","1.47501","1350.16"
"17.80000","1.48348","1357.73"
"17.90000","1.49195","1363.51"
"18.00000","1.50041","1370.05"
"18.10000","1.50878","1377.56"
"18.20000","1.51694","1383.61"
"18.30000","1.52491","1390.02"
"18.40000","1.53347","1396.58"
"18.50000","1.54184","1403.34"
"18.60000","1.55021","1410.69"
"18.70000","1.55887","1417.42"
"18.80000","1.56744","1425.59"
"18.90000","1.57540","1431.33"
"19.00000","1.58317","1437.1"
"19.10000","1.59153","1444.79"
"19.20000","1.60040","1452.22"
"19.30000","1.60887","1458.35"
"19.40000","1.61703","1465.3"
"19.50000","1.62540","1471.93"
"19.60000","1.63336","1478.53"
"19.70000","1.64142","1484.88"
"19.80000","1.64989","1492.13"
"19.90000","1.65866","1498.77"
"20.00000","1.66713","1505.43"
"20.10000","1.67519","1512.13"
"20.20000","1.68335","1518.84"
"20.30000","1.69172","1525.42"
"20.40000","1.70009","1532.82"
"20.50000","1.70845","1539.64"
"20.60000","1.71702","1546.96"
"20.70000","1.72549","1554.68"
"20.80000","1.73375","1561.68"
"20.90000","1.74202","1568.91"
"21.00000","1.74998","1574.84"
"21.10000","1.75824","1582.3"
"21.20000","1.76691","1589.14"
"21.30000","1.77558","1597.02"
"21.40000","1.78395","1603.48"
"21.50000","1.79231","1611.15"
"21.60000","1.80038","1618.23"
"21.70000","1.80834","1624.08"
"21.80000","1.81670","1631.41"
"21.90000","1.82537","1638.2"
"22.00000","1.83404","1645.3"
"22.10000","1.84231","1652.19"
"22.20000","1.85037","1659.49"
"22.30000","1.85833","1666.17"
"22.40000","1.86670","1672.85"
"22.50000","1.87496","1680.14"
"22.60000","1.88343","1686.6"
"22.70000","1.89200","1694.41"
"22.80000","1.90016","1701.6"
"22.90000","1.90853","1706.95"
"23.00000","1.91669","1713.99"
"23.10000","1.92496","1719.21"
"23.20000","1.93342","1727.79"
"23.30000","1.94189","1734.24"
"23.40000","1.95036","1741.32"
"23.50000","1.95882","1747.54"
"23.60000","1.96729","1754.84"
"23.70000","1.97535","1761.31"
"23.80000","1.98332","1767.82"
"23.90000","1.99168","1774.86"
"24.00000","2.00035","1783.45"
"24.10000","2.00882","1789.89"
"24.20000","2.01708","1797.37"
"24.30000","2.02535","1803.97"
"24.40000","2.03351","1811.35"
"24.50000","2.04157","1817.83"
"24.60000","2.05014","1824.47"
"24.70000","2.05891","1832.69"
"24.80000","2.06718","1839.91"
"24.90000","2.07524","1846.35"
"25.00000","2.08351","1853.84"
"25.10000","2.09177","1860.22"
"25.20000","2.10004","1867.41"
"25.30000","2.10840","1874.88"
"25.40000","2.11707","1882.37"
"25.50000","2.12544","1889.45"
"25.60000","2.13360","1896.47"
"25.70000","2.14176","1903.74"
"25.80000","2.15003","1910.17"
"25.90000","2.15829","1917.45"
"26.00000","2.16666","1924.7"
"26.10000","2.17513","1932.55"
"26.20000","2.18379","1939.03"
"26.30000","2.19226","1946.38"
"26.40000","2.20043","1953.72"
"26.50000","2.20849","1960.65"
"26.60000","2.21675","1967.92"
"26.70000","2.22542","1974.79"
"26.80000","2.23409","1983.07"
"26.90000","2.24226","1988.88"
"27.00000","2.25032","1996.59"
"27.10000","2.25828","2004.07"
"27.20000","2.26665","2010.52"
"27.30000","2.27501","2018.37"
"27.40000","2.28368","2026.29"
"27.50000","2.29205","2033.79"
"27.60000","2.30051","2041.54"
"27.70000","2.30858","2047.27"
"27.80000","2.31674","2054.47"
"27.90000","2.32511","2062.43"
"28.00000","2.33347","2069.8"
"28.10000","2.34174","2076.23"
"28.20000","2.35031","2083.98"
"28.30000","2.35897","2091.88"
"28.40000","2.36724","2099.86"
"28.50000","2.37510","2106.38"
"28.60000","2.38316","2113.32"
"28.70000","2.39183","2120.41"
"28.80000","2.40040","2128.32"
"28.90000","2.40867","2135.37"
"29.00000","2.41713","2142.72"
"29.10000","2.42530","2149.39"
"29.20000","2.43326","2157.37"
"29.30000","2.44152","2164.41"
"29.40000","2.45019","2172.22"
"29.50000","2.45896","2178.89"
"29.60000","2.46713","2187.08"
"29.70000","2.47529","2194.34"
"29.80000","2.48356","2200.26"
"29.90000","2.49172","2207.87"
"30.00000","2.50019","2215.34"
"30.10000","2.50865","2222.47"
"30.20000","2.51712","2230.31"
"30.30000","2.52538","2238.6"
"30.40000","2.53355","2244.49"
"30.50000","2.54161","2251.26"
"30.60000","2.54988","2257.97"
"30.70000","2.55834","2266.38"
"30.80000","2.56701","2273.89"
"30.90000","2.57558","2280.29"
"31.00000","2.58405","2288.42"
"31.10000","2.59201","2294.45"
"31.20000","2.59997","2301.79"
"31.30000","2.60804","2307.77"
"31.40000","2.61680","2317.43"
"31.50000","2.62537","2324.46"
"31.60000","2.63394","2331.62"
"31.70000","2.64220","2338.56"
"31.80000","2.65007","2345.67"
"31.90000","2.65833","2352.75"
"32.00000","2.66680","2360.22"
"32.10000","2.67526","2367.92"
"32.20000","2.68373","2375.55"
"32.30000","2.69230","2382.98"
"32.40000","2.70077","2389.65"
"32.50000","2.70853","2396.16"
"32.60000","2.71669","2403.95"
"32.70000","2.72506","2410.95"
"32.80000","2.73352","2418.39"
"32.90000","2.74189","2425.86"
"33.00000","2.75036","2433.65"
"33.10000","2.75892","2440.43"
"33.20000","2.76689","2447.73"
"33.30000","2.77495","2454.41"
"33.40000","2.78332","2462.32"
"33.50000","2.79188","2468.93"
"33.60000","2.80025","2477.09"
"33.70000","2.80861","2484.84"
"33.80000","2.81708","2491.52"
"33.90000","2.82504","2498.54"
"34.00000","2.83311","2504.91"
"34.10000","2.84168","2513.76"
"34.20000","2.85034","2520.81"
"34.30000","2.85871","2528.46"
"34.40000","2.86697","2535.92"
"34.50000","2.87544","2542.25"
"34.60000","2.88381","2549.65"
"34.70000","2.89197","2557.09"
"34.80000","2.90044","2564.73"
"34.90000","2.90911","2572.26"
"35.00000","2.91727","2579.18"
"35.10000","2.92543","2586.62"
"35.20000","2.93360","2593.22"
"35.30000","2.94186","2600.67"
"35.40000","2.95013","2608.01"
"35.50000","2.95849","2615.51"
"35.60000","2.96706","2622.39"
"35.70000","2.97553","2630.12"
"35.80000","2.98379","2635.97"
"35.90000","2.99196","2644.09"
"36.00000","3.00002","2651.1"
"36.10000","3.00819","2657.44"
"36.20000","3.01665","2665.02"
"36.30000","3.02522","2672.74"
"36.40000","3.03369","2679.94"
"36.50000","3.04175","2687.35"
"36.60000","3.05002","2693.47"
"36.70000","3.05828","2701.58"
"36.80000","3.06685","2707.97"
"36.90000","3.07542","2716.71"
"37.00000","3.08378","2724.46"
"37.10000","3.09205","2730.91"
"37.20000","3.10041","2738.4"
"37.30000","3.10868","2746.3"
"37.40000","3.11684","2752.7"
"37.50000","3.12521","2759.75"
"37.60000","3.13357","2767.48"
"37.70000","3.14194","2774.53"
"37.80000","3.15051","2781.54"
"37.90000","3.15907","2788.86"
"38.00000","3.16694","2795.64"
"38.10000","3.17500","2802.74"
"38.20000","3.18357","2810.5"
"38.30000","3.19213","2818"
"38.40000","3.20040","2825.65"
"38.50000","3.20887","2833.12"
"38.60000","3.21723","2841.02"
"38.70000","3.22509","2847.38"
"38.80000","3.23316","2854.19"
"38.90000","3.24172","2861.47"
"39.00000","3.25039","2868.48"
"39.10000","3.25866","2875.42"
"39.20000","3.26672","2882.91"
"39.30000","3.27519","2890.05"
"39.40000","3.28355","2897.43"
"39.50000","3.29172","2904.32"
"39.60000","3.30008","2911.07"
"39.70000","3.30855","2918.7"
"39.80000","3.31682","2925.69"
"39.90000","3.32518","2933.31"
"40.00000","3.33335","2940.22"
"40.10000","3.34161","2946.77"
"40.20000","3.34988","2953.88"
"40.30000","3.35844","2961.72"
"40.40000","3.36711","2969.72"
"40.50000","3.37558","2976.19"
"40.60000","3.38384","2982.79"
"40.70000","3.39191","2990.58"
"40.80000","3.39997","2996.98"
"40.90000","3.40844","3004.63"
"41.00000","3.41711","3011"
"41.10000","3.42557","3018.4"
"41.20000","3.43384","3026.11"
"41.30000","3.44190","3032.54"
"41.40000","3.44986","3038.42"
"41.50000","3.45823","3046.52"
"41.60000","3.46670","3053.38"
"41.70000","3.47536","3059.92"
"41.80000","3.48373","3067.89"
"41.90000","3.49210","3075.35"
"42.00000","3.50036","3082.61"
"42.10000","3.50832","3088.95"
"42.20000","3.51659","3095.6"
"42.30000","3.52526","3103.11"
"42.40000","3.53352","3110.62"
"42.50000","3.54199","3116.52"
"42.60000","3.55056","3123.83"
"42.70000","3.55882","3130.51"
"42.80000","3.56658","3136.98"
"42.90000","3.57495","3143.61"
"43.00000","3.58372","3150.64"
"43.10000","3.59229","3158.33"
"43.20000","3.60035","3164.32"
"43.30000","3.60861","3171.36"
"43.40000","3.61708","3179.39"
"43.50000","3.62524","3184.93"
"43.60000","3.63341","3192.46"
"43.70000","3.64228","3199.32"
"43.80000","3.65064","3207.08"
"43.90000","3.65871","3213.17"
"44.00000","3.66687","3219.81"
"44.10000","3.67514","3226.21"
"44.20000","3.68350","3233.77"
"44.30000","3.69177","3239.46"
"44.40000","3.70034","3246.27"
"44.50000","3.70880","3254.26"
"44.60000","3.71707","3260.73"
"44.70000","3.72523","3267.99"
"44.80000","3.73330","3273.93"
"44.90000","3.74156","3281.45"
"45.00000","3.74983","3286.54"
"45.10000","3.75849","3295.14"
"45.20000","3.76716","3301.58"
"45.30000","3.77543","3307.9"
"45.40000","3.78369","3314.1"
"45.50000","3.79176","3320.54"
"45.60000","3.80002","3326.59"
"45.70000","3.80869","3333.37"
"45.80000","3.81716","3340.03"
"45.90000","3.82562","3346.77"
"46.00000","3.83379","3352.88"
"46.10000","3.84185","3359.36"
"46.20000","3.85001","3365.12"
"46.30000","3.85848","3372.6"
"46.40000","3.86705","3379.05"
"46.50000","3.87562","3385.62"
"46.60000","3.88388","3392.26"
"46.70000","3.89225","3398.59"
"46.80000","3.90021","3405.01"
"46.90000","3.90837","3410.67"
"47.00000","3.91694","3417.88"
"47.10000","3.92521","3424.57"
"47.20000","3.93337","3430.35"
"47.30000","3.94194","3436.7"
"47.40000","3.95040","3443.57"
"47.50000","3.95847","3449.9"
"47.60000","3.96653","3456.09"
"47.70000","3.97500","3462.23"
"47.80000","3.98377","3468.93"
"47.90000","3.99203","3475.68"
"48.00000","4.00040","3481.55"
"48.10000","4.00876","3487.95"
"48.20000","4.01683","3494.05"
"48.30000","4.02489","3501.15"
"48.40000","4.03356","3507.46"
"48.50000","4.04233","3513.91"
"48.60000","4.05069","3520.17"
"48.70000","4.05876","3526.01"
"48.80000","4.06712","3532.1"
"48.90000","4.07539","3538.36"
"49.00000","4.08355","3544.13"
"49.10000","4.09192","3549.92"
"49.20000","4.10049","3555.22"
"49.30000","4.10875","3562.03"
"49.40000","4.11702","3567.56"
"49.50000","4.12518","3574.5"
"49.60000","4.13345","3580.07"
"49.70000","4.14171","3585.35"
"49.80000","4.14998","3592.68"
"49.90000","4.15864","3598.1"
"50.00000","4.16701","3604.43"
"50.10000","4.17538","3608.97"
"50.20000","4.18354","3614.95"
"50.30000","4.19150","3620.51"
"50.40000","4.19987","3625.38"
"50.50000","4.20854","3632.57"
"50.60000","4.21721","3637.33"
"50.70000","4.22557","3643.66"
"50.80000","4.23374","3648.25"
"50.90000","4.24190","3655.03"
"51.00000","4.25027","3659.1"
"51.10000","4.25853","3664.53"
"51.20000","4.26690","3670.74"
"51.30000","4.27536","3676.46"
"51.40000","4.28383","3682.67"
"51.50000","4.29210","3687.86"
"51.60000","4.30016","3693.27"
"51.70000","4.30832","3698.03"
"51.80000","4.31689","3704.06"
"51.90000","4.32526","3709.06"
"52.00000","4.33352","3714.58"
"52.10000","4.34209","3718.78"
"52.20000","4.35045","3724.64"
"52.30000","4.35832","3729.46"
"52.40000","4.36648","3734.06"
"52.50000","4.37495","3738.34"
"52.60000","4.38372","3744.29"
"52.70000","4.39198","3749.05"
"52.80000","4.40035","3753.54"
"52.90000","4.40861","3758.62"
"53.00000","4.41647","3763.07"
"53.10000","4.42464","3767.52"
"53.20000","4.43351","3772.08"
"53.30000","4.44228","3777.28"
"53.40000","4.45044","3781.58"
"53.50000","4.45840","3786.1"
"53.60000","4.46687","3789.78"
"53.70000","4.47524","3794.06"
"53.80000","4.48350","3797.97"
"53.90000","4.49207","3801.97"
"54.00000","4.50064","3805.63"
"54.10000","4.50900","3810.04"
"54.20000","4.51717","3813.27"
"54.30000","4.52513","3816.15"
"54.40000","4.53340","3819.3"
"54.50000","4.54176","3821.82"
"54.60000","4.55033","3825.7"
"54.70000","4.55869","3828.18"
"54.80000","4.56716","3832.29"
"54.90000","4.57553","3834.1"
"55.00000","4.58349","3837.05"
"55.10000","4.59155","3839.02"
"55.20000","4.60012","3840.74"
"55.30000","4.60879","3843"
"55.40000","4.61726","3843.92"
"55.50000","4.62552","3845.17"
"55.60000","4.63338","3844.88"
"55.70000","4.64155","3845.47"
"55.80000","4.64991","3845.33"
"55.90000","4.65848","3844.07"
"56.00000","4.66705","3843.8"
"56.10000","4.67531","3841.56"
"56.20000","4.68378","3838.29"
"56.30000","4.69204","3834.72"
"56.40000","4.70001","3829.08"
"56.50000","4.70837","3820.98"
"56.60000","4.71704","3811.1"
"56.70000","4.72541","3794.85"
"56.80000","4.73387","3766.84"
"56.90000","4.74254","3698.02"
"56.91800","4.74405","3422.93"
"56.92200","4.74436","3085.05"
"56.92600","4.74476","2693.18"
"56.93000","4.74526","2269.08"
"56.93200","4.74547","2059.19"