File: Data_Processing/Tensile-Data/Sequence_22.csv
General : Start date,"10/29/2024 9:57 AM"
General : End date,"10/29/2024 9:58 AM"
Specimen notes : Specimen note 1,"Day 2, blue, 215, batch 13, seq 22"
Test : Rate 1,"5.00000",mm/min

Time,Extension,Load
(s),(mm),(N)
"0.00000","-0.00010","0.99171"
"0.10000","0.00141","0.70024"
"0.20000","0.00947","7.77312"
"0.30000","0.02076","28.97608"
"0.40000","0.03135","47.56442"
"0.50000","0.04012","64.20962"
"0.60000","0.04919","79.10521"
"0.70000","0.05806","95.71750"
"0.80000","0.06632","110.018"
"0.90000","0.07459","123.757"
"1.00000","0.08315","139.313"
"1.10000","0.09152","151.254"
"1.20000","0.09999","165.514"
"1.30000","0.10805","178.375"
"1.40000","0.11672","193.077"
"1.50000","0.12549","206.38"
"1.60000","0.13375","220.972"
"1.70000","0.14182","233.779"
"1.80000","0.14978","247.423"
"1.90000","0.15815","260.528"
"2.00000","0.16661","274.785"
"2.10000","0.17528","289.128"
"2.20000","0.18375","301.91"
"2.30000","0.19201","316.407"
"2.40000","0.19997","329.062"
"2.50000","0.20824","342.5"
"2.60000","0.21681","355.503"
"2.70000","0.22537","369.296"
"2.80000","0.23374","382.31"
"2.90000","0.24211","396.534"
"3.00000","0.25027","409.325"
"3.10000","0.25843","421.94"
"3.20000","0.26660","435.801"
"3.30000","0.27507","448.21"
"3.40000","0.28363","462.893"
"3.50000","0.29180","474.556"
"3.60000","0.30026","488.169"
"3.70000","0.30883","501.237"
"3.80000","0.31690","513.921"
"3.90000","0.32496","525.891"
"4.00000","0.33332","537.68"
"4.10000","0.34189","551.589"
"4.20000","0.35026","564.507"
"4.30000","0.35852","576.983"
"4.40000","0.36689","588.847"
"4.50000","0.37485","601.06"
"4.60000","0.38302","613.301"
"4.70000","0.39158","626.347"
"4.80000","0.40025","640.062"
"4.90000","0.40872","651.912"
"5.00000","0.41718","665.743"
"5.10000","0.42535","676.654"
"5.20000","0.43341","689.376"
"5.30000","0.44168","700.895"
"5.40000","0.45004","712.939"
"5.50000","0.45861","725.36"
"5.60000","0.46698","737.282"
"5.70000","0.47524","750.234"
"5.80000","0.48341","761.185"
"5.90000","0.49177","772.265"
"6.00000","0.49994","784.339"
"6.10000","0.50840","797.343"
"6.20000","0.51687","808.786"
"6.30000","0.52513","821.67"
"6.40000","0.53350","833.465"
"6.50000","0.54187","844.317"
"6.60000","0.55013","855.81"
"6.70000","0.55830","867.912"
"6.80000","0.56676","879.752"
"6.90000","0.57533","891.522"
"7.00000","0.58370","902.901"
"7.10000","0.59186","914.381"
"7.20000","0.59992","925.768"
"7.30000","0.60809","936.016"
"7.40000","0.61666","947.405"
"7.50000","0.62512","960.106"
"7.60000","0.63349","972.156"
"7.70000","0.64206","984.832"
"7.80000","0.65032","995.424"
"7.90000","0.65818","1006.67"
"8.00000","0.66645","1018.35"
"8.10000","0.67491","1029.33"
"8.20000","0.68338","1041.1"
"8.30000","0.69185","1052.62"
"8.40000","0.70042","1062.97"
"8.50000","0.70848","1074.07"
"8.60000","0.71664","1084.41"
"8.70000","0.72491","1095.54"
"8.80000","0.73337","1105.84"
"8.90000","0.74184","1117.7"
"9.00000","0.75021","1128.71"
"9.10000","0.75857","1138.27"
"9.20000","0.76704","1150.28"
"9.30000","0.77480","1159.99"
"9.40000","0.78296","1171.51"
"9.50000","0.79183","1183.36"
"9.60000","0.80040","1192.18"
"9.70000","0.80867","1202.51"
"9.80000","0.81693","1212.12"
"9.90000","0.82520","1221.8"
"10.00000","0.83326","1230.79"
"10.10000","0.84153","1240.63"
"10.20000","0.85009","1250.91"
"10.30000","0.85856","1260.53"
"10.40000","0.86713","1270.64"
"10.50000","0.87529","1280.23"
"10.60000","0.88315","1289.77"
"10.70000","0.89142","1299.47"
"10.80000","0.89968","1309.39"
"10.90000","0.90845","1319.33"
"11.00000","0.91712","1329.26"
"11.10000","0.92529","1338.87"
"11.20000","0.93355","1348.59"
"11.30000","0.94151","1356.48"
"11.40000","0.94978","1366.18"
"11.50000","0.95835","1376.37"
"11.60000","0.96691","1386.12"
"11.70000","0.97548","1396.29"
"11.80000","0.98365","1403.97"
"11.90000","0.99151","1413.66"
"12.00000","0.99987","1423.45"
"12.10000","1.00824","1433.59"
"12.20000","1.01681","1442.64"
"12.30000","1.02527","1452.42"
"12.40000","1.03364","1460.78"
"12.50000","1.04221","1469.96"
"12.60000","1.05027","1479.35"
"12.70000","1.05823","1488.35"
"12.80000","1.06660","1497.22"
"12.90000","1.07506","1506.81"
"13.00000","1.08303","1514.86"
"13.10000","1.09139","1522.86"
"13.20000","1.09986","1533.77"
"13.30000","1.10813","1542.63"
"13.40000","1.11619","1551.56"
"13.50000","1.12466","1559.82"
"13.60000","1.13353","1570.66"
"13.70000","1.14189","1579.53"
"13.80000","1.15016","1588.25"
"13.90000","1.15862","1597.57"
"14.00000","1.16659","1606.48"
"14.10000","1.17475","1614.95"
"14.20000","1.18322","1624.04"
"14.30000","1.19199","1634.14"
"14.40000","1.20045","1641.23"
"14.50000","1.20821","1651.31"
"14.60000","1.21668","1660.61"
"14.70000","1.22515","1669.57"
"14.80000","1.23341","1678.38"
"14.90000","1.24188","1687.7"
"15.00000","1.25034","1696.17"
"15.10000","1.25871","1705.45"
"15.20000","1.26698","1714.35"
"15.30000","1.27524","1721.97"
"15.40000","1.28341","1730.71"
"15.50000","1.29167","1738.55"
"15.60000","1.29983","1747.05"
"15.70000","1.30840","1756.03"
"15.80000","1.31697","1764.45"
"15.90000","1.32544","1773.01"
"16.00000","1.33350","1782.21"
"16.10000","1.34146","1790.23"
"16.20000","1.34983","1797.28"
"16.30000","1.35840","1807.08"
"16.40000","1.36696","1816.08"
"16.50000","1.37523","1824.79"
"16.60000","1.38349","1832.53"
"16.70000","1.39156","1840.7"
"16.80000","1.39992","1848.57"
"16.90000","1.40829","1857.62"
"17.00000","1.41676","1865.55"
"17.10000","1.42522","1873.84"
"17.20000","1.43349","1881.64"
"17.30000","1.44185","1889.51"
"17.40000","1.44992","1897.91"
"17.50000","1.45828","1905.89"
"17.60000","1.46665","1915.17"
"17.70000","1.47501","1923.65"
"17.80000","1.48358","1931.72"
"17.90000","1.49205","1939.69"
"18.00000","1.50041","1947.83"
"18.10000","1.50838","1955.09"
"18.20000","1.51644","1962.09"
"18.30000","1.52491","1970.49"
"18.40000","1.53368","1978.49"
"18.50000","1.54194","1985.66"
"18.60000","1.55021","1993.5"
"18.70000","1.55847","2001.25"
"18.80000","1.56653","2008.38"
"18.90000","1.57470","2017.21"
"19.00000","1.58337","2025.34"
"19.10000","1.59214","2033.58"
"19.20000","1.60020","2042.04"
"19.30000","1.60836","2048.56"
"19.40000","1.61673","2056.28"
"19.50000","1.62499","2064.22"
"19.60000","1.63316","2071.43"
"19.70000","1.64163","2077.96"
"19.80000","1.65019","2087.14"
"19.90000","1.65846","2094.38"
"20.00000","1.66703","2102.16"
"20.10000","1.67509","2109.59"
"20.20000","1.68325","2117.56"
"20.30000","1.69142","2124.32"
"20.40000","1.70019","2133.17"
"20.50000","1.70875","2141.57"
"20.60000","1.71712","2148.54"
"20.70000","1.72539","2156.17"
"20.80000","1.73345","2163.73"
"20.90000","1.74141","2170.37"
"21.00000","1.74988","2178.21"
"21.10000","1.75865","2186.32"
"21.20000","1.76711","2192.99"
"21.30000","1.77528","2201.58"
"21.40000","1.78324","2209.15"
"21.50000","1.79151","2216.69"
"21.60000","1.79987","2224.84"
"21.70000","1.80824","2231.9"
"21.80000","1.81681","2239.51"
"21.90000","1.82537","2248.59"
"22.00000","1.83364","2255.72"
"22.10000","1.84180","2263.44"
"22.20000","1.84976","2270.56"
"22.30000","1.85813","2278.35"
"22.40000","1.86670","2286.41"
"22.50000","1.87506","2293.92"
"22.60000","1.88353","2301.69"
"22.70000","1.89220","2308.87"
"22.80000","1.90036","2316.51"
"22.90000","1.90812","2323.56"
"23.00000","1.91629","2331.12"
"23.10000","1.92496","2338.98"
"23.20000","1.93373","2347.77"
"23.30000","1.94199","2354.46"
"23.40000","1.95016","2361.85"
"23.50000","1.95842","2369.34"
"23.60000","1.96648","2376.5"
"23.70000","1.97485","2383.88"
"23.80000","1.98362","2392.46"
"23.90000","1.99219","2399.95"
"24.00000","2.00025","2407.64"
"24.10000","2.00831","2415.31"
"24.20000","2.01658","2422.59"
"24.30000","2.02484","2429.43"
"24.40000","2.03321","2437.78"
"24.50000","2.04178","2445.38"
"24.60000","2.05024","2453.1"
"24.70000","2.05871","2461.29"
"24.80000","2.06687","2468.23"
"24.90000","2.07494","2475.95"
"25.00000","2.08320","2483.08"
"25.10000","2.09147","2491.15"
"25.20000","2.10014","2498.61"
"25.30000","2.10870","2506.82"
"25.40000","2.11727","2513.92"
"25.50000","2.12544","2521.01"
"25.60000","2.13320","2528.73"
"25.70000","2.14136","2536.4"
"25.80000","2.14993","2543.72"
"25.90000","2.15880","2551.27"
"26.00000","2.16726","2559.51"
"26.10000","2.17523","2566.24"
"26.20000","2.18319","2574.35"
"26.30000","2.19135","2581.78"
"26.40000","2.19982","2588.58"
"26.50000","2.20849","2596.62"
"26.60000","2.21706","2603.57"
"26.70000","2.22522","2611.76"
"26.80000","2.23359","2618.34"
"26.90000","2.24165","2626.06"
"27.00000","2.24992","2633.77"
"27.10000","2.25838","2641.24"
"27.20000","2.26665","2649.36"
"27.30000","2.27501","2656.32"
"27.40000","2.28368","2664.67"
"27.50000","2.29205","2672.33"
"27.60000","2.30001","2679.15"
"27.70000","2.30807","2687.25"
"27.80000","2.31664","2694.65"
"27.90000","2.32531","2702.73"
"28.00000","2.33368","2710.39"
"28.10000","2.34194","2716.8"
"28.20000","2.35021","2724.24"
"28.30000","2.35817","2731.54"
"28.40000","2.36633","2738.08"
"28.50000","2.37490","2746.3"
"28.60000","2.38367","2753.88"
"28.70000","2.39214","2761.48"
"28.80000","2.40010","2768.82"
"28.90000","2.40846","2776.36"
"29.00000","2.41683","2783.63"
"29.10000","2.42509","2790.36"
"29.20000","2.43346","2797.89"
"29.30000","2.44193","2806.15"
"29.40000","2.45019","2813.68"
"29.50000","2.45856","2819.67"
"29.60000","2.46662","2827.18"
"29.70000","2.47499","2833.29"
"29.80000","2.48315","2841.46"
"29.90000","2.49142","2848.31"
"30.00000","2.50019","2856.66"
"30.10000","2.50875","2863.82"
"30.20000","2.51702","2871.18"
"30.30000","2.52498","2877.95"
"30.40000","2.53294","2884.69"
"30.50000","2.54141","2892.6"
"30.60000","2.55008","2899.69"
"30.70000","2.55865","2907.87"
"30.80000","2.56691","2914.71"
"30.90000","2.57508","2922.55"
"31.00000","2.58314","2928.75"
"31.10000","2.59161","2936.61"
"31.20000","2.60007","2942.54"
"31.30000","2.60854","2950.73"
"31.40000","2.61711","2957.71"
"31.50000","2.62567","2965.13"
"31.60000","2.63374","2972.15"
"31.70000","2.64160","2978.41"
"31.80000","2.64997","2984.96"
"31.90000","2.65843","2992.16"
"32.00000","2.66670","2999.99"
"32.10000","2.67506","3007.09"
"32.20000","2.68373","3014.31"
"32.30000","2.69210","3021.72"
"32.40000","2.69996","3027.98"
"32.50000","2.70812","3034.07"
"32.60000","2.71659","3041.64"
"32.70000","2.72526","3050.35"
"32.80000","2.73362","3057.2"
"32.90000","2.74189","3062.92"
"33.00000","2.75015","3070.21"
"33.10000","2.75802","3077.11"
"33.20000","2.76638","3083.7"
"33.30000","2.77515","3092.41"
"33.40000","2.78382","3099.98"
"33.50000","2.79188","3106.33"
"33.60000","2.80025","3112.74"
"33.70000","2.80851","3120.27"
"33.80000","2.81678","3128.17"
"33.90000","2.82515","3134.16"
"34.00000","2.83351","3140.58"
"34.10000","2.84198","3147.64"
"34.20000","2.85044","3155.51"
"34.30000","2.85871","3161.7"
"34.40000","2.86687","3169.01"
"34.50000","2.87494","3176"
"34.60000","2.88320","3182.67"
"34.70000","2.89177","3190.97"
"34.80000","2.90024","3197.29"
"34.90000","2.90870","3203.8"
"35.00000","2.91707","3210.69"
"35.10000","2.92513","3217.9"
"35.20000","2.93320","3223.11"
"35.30000","2.94136","3228.9"
"35.40000","2.95003","3237.19"
"35.50000","2.95849","3243.83"
"35.60000","2.96686","3250.55"
"35.70000","2.97492","3256.99"
"35.80000","2.98309","3265.09"
"35.90000","2.99155","3271.75"
"36.00000","3.00012","3279.59"
"36.10000","3.00859","3285.74"
"36.20000","3.01685","3293.05"
"36.30000","3.02532","3299.57"
"36.40000","3.03359","3307.05"
"36.50000","3.04175","3313.26"
"36.60000","3.05012","3320"
"36.70000","3.05858","3326.77"
"36.80000","3.06685","3334.5"
"36.90000","3.07531","3340.74"
"37.00000","3.08388","3347.33"
"37.10000","3.09205","3353.58"
"37.20000","3.09991","3360.16"
"37.30000","3.10817","3367.16"
"37.40000","3.11694","3375.76"
"37.50000","3.12541","3381.96"
"37.60000","3.13377","3388.03"
"37.70000","3.14204","3394.59"
"37.80000","3.14990","3400.78"
"37.90000","3.15797","3406.69"
"38.00000","3.16643","3414.41"
"38.10000","3.17520","3420.74"
"38.20000","3.18387","3427.93"
"38.30000","3.19183","3433.98"
"38.40000","3.19990","3440.78"
"38.50000","3.20836","3446.86"
"38.60000","3.21653","3454.04"
"38.70000","3.22499","3460.44"
"38.80000","3.23346","3466.7"
"38.90000","3.24183","3473.77"
"39.00000","3.25009","3479.35"
"39.10000","3.25825","3485.73"
"39.20000","3.26652","3492.55"
"39.30000","3.27479","3499.39"
"39.40000","3.28315","3505.31"
"39.50000","3.29172","3513.19"
"39.60000","3.30029","3519.33"
"39.70000","3.30875","3525.73"
"39.80000","3.31692","3531.83"
"39.90000","3.32488","3538.54"
"40.00000","3.33325","3544.79"
"40.10000","3.34181","3551.3"
"40.20000","3.35048","3558.11"
"40.30000","3.35885","3564.76"
"40.40000","3.36681","3570.41"
"40.50000","3.37477","3575.91"
"40.60000","3.38304","3581.88"
"40.70000","3.39150","3588.56"
"40.80000","3.40017","3594.12"
"40.90000","3.40854","3600.37"
"41.00000","3.41701","3606.48"
"41.10000","3.42517","3613.35"
"41.20000","3.43323","3618.76"
"41.30000","3.44150","3624.61"
"41.40000","3.45007","3631.77"
"41.50000","3.45843","3638.75"
"41.60000","3.46660","3644.09"
"41.70000","3.47526","3649.91"
"41.80000","3.48363","3653.55"
"41.90000","3.49169","3658.9"
"42.00000","3.49996","3664.46"
"42.10000","3.50832","3670.51"
"42.20000","3.51719","3677.71"
"42.30000","3.52526","3682.96"
"42.40000","3.53352","3688.55"
"42.50000","3.54199","3693.79"
"42.60000","3.55015","3699.79"
"42.70000","3.55822","3704.65"
"42.80000","3.56668","3709.84"
"42.90000","3.57555","3716.64"
"43.00000","3.58382","3722.77"
"43.10000","3.59168","3728.41"
"43.20000","3.60005","3733.71"
"43.30000","3.60851","3739.59"
"43.40000","3.61658","3745.25"
"43.50000","3.62504","3750.49"
"43.60000","3.63351","3756.21"
"43.70000","3.64177","3761.2"
"43.80000","3.65014","3766.21"
"43.90000","3.65830","3772.55"
"44.00000","3.66667","3777.16"
"44.10000","3.67494","3782.96"
"44.20000","3.68340","3788.88"
"44.30000","3.69187","3793.4"
"44.40000","3.70024","3799.89"
"44.50000","3.70860","3803.2"
"44.60000","3.71687","3809.19"
"44.70000","3.72493","3813.18"
"44.80000","3.73330","3818.03"
"44.90000","3.74186","3824.42"
"45.00000","3.75033","3828.84"
"45.10000","3.75870","3834.73"
"45.20000","3.76686","3839.88"
"45.30000","3.77492","3844.69"
"45.40000","3.78329","3848.18"
"45.50000","3.79166","3852.82"
"45.60000","3.80032","3857.64"
"45.70000","3.80869","3862.79"
"45.80000","3.81695","3867.94"
"45.90000","3.82522","3871.78"
"46.00000","3.83338","3876.68"
"46.10000","3.84155","3881.15"
"46.20000","3.85001","3885.43"
"46.30000","3.85828","3889.55"
"46.40000","3.86675","3893.61"
"46.50000","3.87521","3897.58"
"46.60000","3.88348","3902.24"
"46.70000","3.89154","3905.21"
"46.80000","3.89971","3909.74"
"46.90000","3.90837","3913.56"
"47.00000","3.91694","3917.31"
"47.10000","3.92521","3921.03"
"47.20000","3.93377","3925.29"
"47.30000","3.94194","3928.86"
"47.40000","3.94980","3931.55"
"47.50000","3.95807","3935.62"
"47.60000","3.96673","3938.14"
"47.70000","3.97550","3940.77"
"47.80000","3.98387","3943.75"
"47.90000","3.99203","3945.79"
"48.00000","4.00030","3948.14"
"48.10000","4.00836","3949.72"
"48.20000","4.01673","3952.58"
"48.30000","4.02529","3954.59"
"48.40000","4.03376","3956.24"
"48.50000","4.04203","3957.85"
"48.60000","4.05009","3959.68"
"48.70000","4.05815","3960.96"
"48.80000","4.06652","3961.23"
"48.90000","4.07468","3961.77"
"49.00000","4.08335","3962.89"
"49.10000","4.09192","3961.7"
"49.20000","4.10018","3961.17"
"49.30000","4.10845","3960.73"
"49.40000","4.11651","3959.53"
"49.50000","4.12468","3958.9"
"49.60000","4.13335","3957.43"
"49.70000","4.14191","3956.25"
"49.80000","4.15048","3953.73"
"49.90000","4.15875","3951.78"
"50.00000","4.16671","3948.11"
"50.10000","4.17487","3944.29"
"50.20000","4.18324","3940.53"
"50.30000","4.19181","3936.19"
"50.40000","4.20037","3931.61"
"50.50000","4.20864","3925.62"
"50.60000","4.21710","3918.6"
"50.70000","4.22507","3909.52"
"50.80000","4.23303","3900.19"
"50.90000","4.24170","3889.81"
"51.00000","4.25037","3876.56"
"51.10000","4.25843","3858.12"
"51.20000","4.26690","3835.25"
"51.30000","4.27536","3797.94"
"51.40000","4.28353","3449.89"
"51.40400","4.28383","3123.25"
"51.40800","4.28423","2738.02"
"51.41200","4.28464","2315.05"
"51.41400","4.28484","2106.4"