File: Data_Processing/Tensile-Data/Sequence_25.csv
General : Start date,"10/29/2024 10:07 AM"
General : End date,"10/29/2024 10:08 AM"
Specimen notes : Specimen note 1,"Day 2, blue, 215, batch 11, seq 25"
Test : Rate 1,"5.00000",mm/min

Time,Extension,Load
(s),(mm),(N)
"0.00000","0.00000","0.81200"
"0.10000","0.00212","1.43490"
"0.20000","0.01270","16.40179"
"0.30000","0.02459","39.30970"
"0.40000","0.03326","55.06246"
"0.50000","0.04163","68.94339"
"0.60000","0.04989","82.11287"
"0.70000","0.05806","95.45238"
"0.80000","0.06662","108.094"
"0.90000","0.07539","122.775"
"1.00000","0.08386","135.476"
"1.10000","0.09202","149.281"
"1.20000","0.10039","162.622"
"1.30000","0.10845","174.788"
"1.40000","0.11682","187.835"
"1.50000","0.12529","199.915"
"1.60000","0.13385","213.11"
"1.70000","0.14202","226.57"
"1.80000","0.15008","237.479"
"1.90000","0.15845","250.449"
"2.00000","0.16681","263.198"
"2.10000","0.17488","275.958"
"2.20000","0.18324","288.409"
"2.30000","0.19191","300.988"
"2.40000","0.20058","314.004"
"2.50000","0.20874","325.989"
"2.60000","0.21671","337.715"
"2.70000","0.22487","349.12"
"2.80000","0.23324","362.21"
"2.90000","0.24170","373.345"
"3.00000","0.25027","385.99"
"3.10000","0.25894","398.073"
"3.20000","0.26720","409.277"
"3.30000","0.27497","421.248"
"3.40000","0.28313","431.45"
"3.50000","0.29180","444.249"
"3.60000","0.30057","455.777"
"3.70000","0.30893","467.121"
"3.80000","0.31720","478.677"
"3.90000","0.32516","489.304"
"4.00000","0.33322","498.573"
"4.10000","0.34159","509.796"
"4.20000","0.35016","521.23"
"4.30000","0.35872","532.617"
"4.40000","0.36709","543.181"
"4.50000","0.37536","553.625"
"4.60000","0.38382","563.997"
"4.70000","0.39178","574.509"
"4.80000","0.39995","584.879"
"4.90000","0.40852","595.595"
"5.00000","0.41688","607.181"
"5.10000","0.42535","617.986"
"5.20000","0.43372","627.768"
"5.30000","0.44188","638.551"
"5.40000","0.44984","647.728"
"5.50000","0.45811","657.819"
"5.60000","0.46688","668.504"
"5.70000","0.47554","678.85"
"5.80000","0.48401","688.959"
"5.90000","0.49228","698.643"
"6.00000","0.50024","706.766"
"6.10000","0.50830","715.962"
"6.20000","0.51677","725.273"
"6.30000","0.52534","733.731"
"6.40000","0.53380","743.257"
"6.50000","0.54197","750.948"
"6.60000","0.55023","760.356"
"6.70000","0.55850","768.708"
"6.80000","0.56666","777.245"
"6.90000","0.57513","786.775"
"7.00000","0.58360","795.896"
"7.10000","0.59206","804.646"
"7.20000","0.60013","812.797"
"7.30000","0.60859","821.48"
"7.40000","0.61686","830.454"
"7.50000","0.62502","839.277"
"7.60000","0.63339","847.873"
"7.70000","0.64195","856.407"
"7.80000","0.65042","865.4"
"7.90000","0.65879","872.351"
"8.00000","0.66685","881.638"
"8.10000","0.67491","888.211"
"8.20000","0.68338","896.737"
"8.30000","0.69175","904.163"
"8.40000","0.70021","914.125"
"8.50000","0.70858","921.356"
"8.60000","0.71695","929.35"
"8.70000","0.72511","938.268"
"8.80000","0.73327","945.461"
"8.90000","0.74174","955.027"
"9.00000","0.75011","962.495"
"9.10000","0.75847","971.307"
"9.20000","0.76704","980.176"
"9.30000","0.77541","988.04"
"9.40000","0.78357","995.454"
"9.50000","0.79173","1002.9"
"9.60000","0.80000","1011.48"
"9.70000","0.80867","1019.69"
"9.80000","0.81693","1027.58"
"9.90000","0.82520","1035.35"
"10.00000","0.83366","1043.34"
"10.10000","0.84213","1051.62"
"10.20000","0.84999","1058.77"
"10.30000","0.85836","1066.55"
"10.40000","0.86713","1075.79"
"10.50000","0.87549","1084.11"
"10.60000","0.88366","1091.24"
"10.70000","0.89192","1098.86"
"10.80000","0.90029","1106.6"
"10.90000","0.90835","1114.64"
"11.00000","0.91672","1121.68"
"11.10000","0.92529","1130.36"
"11.20000","0.93355","1138.04"
"11.30000","0.94182","1147.09"
"11.40000","0.95018","1153.21"
"11.50000","0.95825","1161.64"
"11.60000","0.96641","1169.89"
"11.70000","0.97488","1178.08"
"11.80000","0.98354","1185.35"
"11.90000","0.99211","1193.63"
"12.00000","1.00038","1201.4"
"12.10000","1.00864","1209.01"
"12.20000","1.01660","1217.42"
"12.30000","1.02487","1225.19"
"12.40000","1.03354","1233.47"
"12.50000","1.04211","1241.62"
"12.60000","1.05037","1248.91"
"12.70000","1.05864","1255.9"
"12.80000","1.06670","1264.39"
"12.90000","1.07506","1272.58"
"13.00000","1.08343","1280.07"
"13.10000","1.09210","1288.05"
"13.20000","1.10057","1296.06"
"13.30000","1.10883","1303.32"
"13.40000","1.11710","1311.18"
"13.50000","1.12526","1319.34"
"13.60000","1.13353","1326.11"
"13.70000","1.14189","1334.84"
"13.80000","1.14995","1342.8"
"13.90000","1.15802","1348.8"
"14.00000","1.16648","1356.16"
"14.10000","1.17505","1363.97"
"14.20000","1.18301","1372.15"
"14.30000","1.19128","1379.67"
"14.40000","1.19995","1387.56"
"14.50000","1.20862","1396.5"
"14.60000","1.21688","1404.24"
"14.70000","1.22535","1411.16"
"14.80000","1.23371","1418.72"
"14.90000","1.24168","1426.05"
"15.00000","1.24974","1432.83"
"15.10000","1.25841","1440.96"
"15.20000","1.26718","1449.03"
"15.30000","1.27534","1456.48"
"15.40000","1.28341","1463.07"
"15.50000","1.29187","1471.23"
"15.60000","1.30034","1478.91"
"15.70000","1.30860","1486.84"
"15.80000","1.31707","1494.44"
"15.90000","1.32554","1502.06"
"16.00000","1.33380","1509.17"
"16.10000","1.34207","1516.33"
"16.20000","1.35023","1523.56"
"16.30000","1.35840","1530.71"
"16.40000","1.36656","1538.65"
"16.50000","1.37503","1546.33"
"16.60000","1.38370","1554.37"
"16.70000","1.39216","1561.86"
"16.80000","1.40053","1567.97"
"16.90000","1.40849","1575.59"
"17.00000","1.41645","1583"
"17.10000","1.42502","1590.47"
"17.20000","1.43359","1597.89"
"17.30000","1.44205","1605.08"
"17.40000","1.45032","1613.2"
"17.50000","1.45838","1620.93"
"17.60000","1.46655","1628.86"
"17.70000","1.47491","1635.94"
"17.80000","1.48348","1644.14"
"17.90000","1.49195","1651.31"
"18.00000","1.50041","1658.77"
"18.10000","1.50878","1665.75"
"18.20000","1.51705","1673.52"
"18.30000","1.52491","1680.04"
"18.40000","1.53337","1688.56"
"18.50000","1.54184","1696"
"18.60000","1.55011","1702.49"
"18.70000","1.55867","1711.08"
"18.80000","1.56724","1717.76"
"18.90000","1.57540","1725.48"
"19.00000","1.58327","1732.77"
"19.10000","1.59143","1740.24"
"19.20000","1.60020","1749.04"
"19.30000","1.60887","1756.05"
"19.40000","1.61713","1763.4"
"19.50000","1.62530","1770.6"
"19.60000","1.63346","1777.82"
"19.70000","1.64153","1785.63"
"19.80000","1.64989","1793.09"
"19.90000","1.65866","1801.27"
"20.00000","1.66713","1809.01"
"20.10000","1.67509","1815.81"
"20.20000","1.68325","1824.33"
"20.30000","1.69162","1831.15"
"20.40000","1.69999","1838.78"
"20.50000","1.70845","1846.59"
"20.60000","1.71712","1855.25"
"20.70000","1.72539","1861.7"
"20.80000","1.73365","1869.1"
"20.90000","1.74212","1877.31"
"21.00000","1.75008","1884.63"
"21.10000","1.75824","1891.43"
"21.20000","1.76671","1900.16"
"21.30000","1.77558","1908.88"
"21.40000","1.78395","1916.56"
"21.50000","1.79231","1923.69"
"21.60000","1.80048","1931.85"
"21.70000","1.80834","1938.62"
"21.80000","1.81660","1945.68"
"21.90000","1.82507","1953.05"
"22.00000","1.83394","1961.43"
"22.10000","1.84231","1969.8"
"22.20000","1.85027","1977.05"
"22.30000","1.85833","1984.59"
"22.40000","1.86670","1991.47"
"22.50000","1.87496","1999.32"
"22.60000","1.88343","2006.8"
"22.70000","1.89190","2015.64"
"22.80000","1.90016","2022.4"
"22.90000","1.90863","2030.61"
"23.00000","1.91689","2038.56"
"23.10000","1.92496","2046.03"
"23.20000","1.93332","2053.31"
"23.30000","1.94199","2061.1"
"23.40000","1.95016","2069.87"
"23.50000","1.95892","2076.97"
"23.60000","1.96719","2085.14"
"23.70000","1.97525","2091.33"
"23.80000","1.98322","2098.29"
"23.90000","1.99148","2105.92"
"24.00000","2.00025","2113.72"
"24.10000","2.00872","2121.57"
"24.20000","2.01708","2129.23"
"24.30000","2.02535","2135.97"
"24.40000","2.03341","2144.04"
"24.50000","2.04157","2150.91"
"24.60000","2.05004","2159.67"
"24.70000","2.05881","2167.38"
"24.80000","2.06718","2175.61"
"24.90000","2.07524","2183.11"
"25.00000","2.08340","2191.13"
"25.10000","2.09177","2198.12"
"25.20000","2.09993","2205.92"
"25.30000","2.10840","2212.92"
"25.40000","2.11687","2220.42"
"25.50000","2.12533","2228.44"
"25.60000","2.13370","2235.35"
"25.70000","2.14176","2242.39"
"25.80000","2.14993","2250.64"
"25.90000","2.15819","2258.04"
"26.00000","2.16646","2265.72"
"26.10000","2.17523","2273.52"
"26.20000","2.18379","2281.72"
"26.30000","2.19226","2289.89"
"26.40000","2.20033","2296.88"
"26.50000","2.20819","2304.37"
"26.60000","2.21655","2311.19"
"26.70000","2.22522","2319.39"
"26.80000","2.23409","2326.82"
"26.90000","2.24226","2335"
"27.00000","2.25032","2341.25"
"27.10000","2.25828","2348.04"
"27.20000","2.26655","2355.53"
"27.30000","2.27491","2362.22"
"27.40000","2.28368","2371.03"
"27.50000","2.29215","2377.91"
"27.60000","2.30041","2384.12"
"27.70000","2.30858","2392.97"
"27.80000","2.31674","2399.94"
"27.90000","2.32501","2407.79"
"28.00000","2.33337","2416.67"
"28.10000","2.34174","2423.94"
"28.20000","2.35021","2431.42"
"28.30000","2.35887","2439.26"
"28.40000","2.36724","2445.35"
"28.50000","2.37510","2452.23"
"28.60000","2.38316","2461.18"
"28.70000","2.39163","2468.55"
"28.80000","2.40040","2476.51"
"28.90000","2.40877","2482.88"
"29.00000","2.41703","2491.01"
"29.10000","2.42530","2497.52"
"29.20000","2.43326","2505.55"
"29.30000","2.44142","2512.08"
"29.40000","2.45009","2518.86"
"29.50000","2.45866","2526.49"
"29.60000","2.46703","2533.94"
"29.70000","2.47519","2540.82"
"29.80000","2.48356","2548.32"
"29.90000","2.49172","2555.38"
"30.00000","2.50009","2563.09"
"30.10000","2.50855","2570.28"
"30.20000","2.51702","2578.16"
"30.30000","2.52528","2585.82"
"30.40000","2.53365","2593.74"
"30.50000","2.54171","2598.9"
"30.60000","2.54998","2606.37"
"30.70000","2.55834","2614.2"
"30.80000","2.56691","2621.34"
"30.90000","2.57548","2629.52"
"31.00000","2.58395","2636.38"
"31.10000","2.59191","2643.65"
"31.20000","2.59987","2650.01"
"31.30000","2.60804","2657.61"
"31.40000","2.61670","2665.43"
"31.50000","2.62547","2672.79"
"31.60000","2.63384","2680.94"
"31.70000","2.64210","2687.79"
"31.80000","2.65007","2695.81"
"31.90000","2.65833","2702.85"
"32.00000","2.66680","2710.67"
"32.10000","2.67506","2718.16"
"32.20000","2.68363","2724.98"
"32.30000","2.69220","2732.37"
"32.40000","2.70066","2740.32"
"32.50000","2.70883","2746.66"
"32.60000","2.71679","2752.93"
"32.70000","2.72516","2760.38"
"32.80000","2.73362","2767.83"
"32.90000","2.74189","2774.97"
"33.00000","2.75015","2782.86"
"33.10000","2.75872","2790.31"
"33.20000","2.76689","2797.86"
"33.30000","2.77495","2803.66"
"33.40000","2.78321","2811.49"
"33.50000","2.79178","2819.12"
"33.60000","2.80035","2826.2"
"33.70000","2.80861","2833.53"
"33.80000","2.81698","2840.8"
"33.90000","2.82504","2849.16"
"34.00000","2.83321","2855.28"
"34.10000","2.84168","2862.56"
"34.20000","2.85034","2871.02"
"34.30000","2.85871","2877.5"
"34.40000","2.86687","2884.37"
"34.50000","2.87524","2891.39"
"34.60000","2.88371","2898.5"
"34.70000","2.89187","2905.54"
"34.80000","2.90034","2913.91"
"34.90000","2.90890","2920.44"
"35.00000","2.91727","2927.69"
"35.10000","2.92554","2935.9"
"35.20000","2.93370","2941.64"
"35.30000","2.94186","2948.73"
"35.40000","2.94993","2955.52"
"35.50000","2.95819","2963.23"
"35.60000","2.96686","2970.73"
"35.70000","2.97533","2977.34"
"35.80000","2.98379","2984.45"
"35.90000","2.99206","2990.87"
"36.00000","3.00002","2997.81"
"36.10000","3.00819","3004.4"
"36.20000","3.01665","3011.51"
"36.30000","3.02522","3019.07"
"36.40000","3.03369","3026.16"
"36.50000","3.04185","3032.8"
"36.60000","3.05002","3040.51"
"36.70000","3.05828","3047.32"
"36.80000","3.06675","3054.1"
"36.90000","3.07521","3061.03"
"37.00000","3.08368","3068.68"
"37.10000","3.09205","3076.62"
"37.20000","3.10041","3083.21"
"37.30000","3.10858","3090.09"
"37.40000","3.11664","3097.16"
"37.50000","3.12501","3104.18"
"37.60000","3.13347","3111.16"
"37.70000","3.14194","3117.81"
"37.80000","3.15041","3124.5"
"37.90000","3.15907","3132.19"
"38.00000","3.16694","3138.07"
"38.10000","3.17490","3144.08"
"38.20000","3.18337","3151.03"
"38.30000","3.19203","3158.76"
"38.40000","3.20040","3166.5"
"38.50000","3.20887","3172.75"
"38.60000","3.21713","3180.14"
"38.70000","3.22499","3186.67"
"38.80000","3.23316","3193.89"
"38.90000","3.24162","3200.77"
"39.00000","3.25039","3208.68"
"39.10000","3.25886","3215.45"
"39.20000","3.26682","3221.81"
"39.30000","3.27509","3228.69"
"39.40000","3.28335","3236.29"
"39.50000","3.29162","3243.08"
"39.60000","3.30008","3249.14"
"39.70000","3.30855","3256.42"
"39.80000","3.31702","3263.52"
"39.90000","3.32538","3270.6"
"40.00000","3.33345","3276.82"
"40.10000","3.34161","3282.57"
"40.20000","3.34988","3289.72"
"40.30000","3.35834","3297.63"
"40.40000","3.36701","3304.32"
"40.50000","3.37548","3311.3"
"40.60000","3.38384","3317.52"
"40.70000","3.39191","3324.92"
"40.80000","3.39987","3331.98"
"40.90000","3.40834","3338.54"
"41.00000","3.41711","3345.3"
"41.10000","3.42567","3352.62"
"41.20000","3.43394","3358.63"
"41.30000","3.44180","3365.42"
"41.40000","3.44976","3371.65"
"41.50000","3.45813","3378.07"
"41.60000","3.46649","3384.2"
"41.70000","3.47526","3390.97"
"41.80000","3.48363","3398.02"
"41.90000","3.49210","3404.3"
"42.00000","3.50026","3411.18"
"42.10000","3.50832","3417.53"
"42.20000","3.51669","3424.42"
"42.30000","3.52516","3432.02"
"42.40000","3.53332","3438.22"
"42.50000","3.54189","3445.48"
"42.60000","3.55046","3451.24"
"42.70000","3.55882","3457.69"
"42.80000","3.56658","3464.18"
"42.90000","3.57495","3469.77"
"43.00000","3.58362","3478.48"
"43.10000","3.59229","3484.67"
"43.20000","3.60045","3491.01"
"43.30000","3.60871","3497.14"
"43.40000","3.61708","3502.98"
"43.50000","3.62504","3509.76"
"43.60000","3.63321","3515.99"
"43.70000","3.64188","3523.04"
"43.80000","3.65054","3529.63"
"43.90000","3.65871","3535.95"
"44.00000","3.66687","3543.01"
"44.10000","3.67524","3548.71"
"44.20000","3.68360","3555.52"
"44.30000","3.69167","3561.47"
"44.40000","3.70024","3567.32"
"44.50000","3.70880","3574.91"
"44.60000","3.71687","3580.15"
"44.70000","3.72513","3587.1"
"44.80000","3.73319","3592.73"
"44.90000","3.74156","3599.6"
"45.00000","3.74993","3605.09"
"45.10000","3.75849","3611.79"
"45.20000","3.76716","3617.6"
"45.30000","3.77543","3623.19"
"45.40000","3.78369","3629.08"
"45.50000","3.79166","3635.02"
"45.60000","3.80002","3641.83"
"45.70000","3.80869","3648.6"
"45.80000","3.81726","3654.92"
"45.90000","3.82562","3661.04"
"46.00000","3.83379","3666.22"
"46.10000","3.84195","3672.85"
"46.20000","3.85012","3678.88"
"46.30000","3.85848","3685.13"
"46.40000","3.86695","3690.61"
"46.50000","3.87541","3697.19"
"46.60000","3.88378","3702.1"
"46.70000","3.89205","3708.23"
"46.80000","3.90021","3712.78"
"46.90000","3.90847","3719.56"
"47.00000","3.91684","3725.48"
"47.10000","3.92511","3731.16"
"47.20000","3.93337","3737.4"
"47.30000","3.94184","3742.7"
"47.40000","3.95030","3749.86"
"47.50000","3.95847","3755.35"
"47.60000","3.96653","3760.69"
"47.70000","3.97490","3766.07"
"47.80000","3.98367","3772.74"
"47.90000","3.99193","3778.03"
"48.00000","4.00030","3783.76"
"48.10000","4.00876","3789.68"
"48.20000","4.01683","3795.25"
"48.30000","4.02489","3799.84"
"48.40000","4.03336","3806.41"
"48.50000","4.04213","3812.32"
"48.60000","4.05059","3817.82"
"48.70000","4.05876","3822.78"
"48.80000","4.06702","3828.11"
"48.90000","4.07529","3833.48"
"49.00000","4.08345","3838.49"
"49.10000","4.09182","3844.33"
"49.20000","4.10049","3849.84"
"49.30000","4.10875","3855.48"
"49.40000","4.11702","3860.73"
"49.50000","4.12508","3866.62"
"49.60000","4.13314","3870.79"
"49.70000","4.14141","3876.29"
"49.80000","4.14977","3881.82"
"49.90000","4.15864","3887.37"
"50.00000","4.16711","3892.33"
"50.10000","4.17528","3896.78"
"50.20000","4.18354","3901.77"
"50.30000","4.19150","3906.07"
"50.40000","4.19977","3910.41"
"50.50000","4.20854","3915.94"
"50.60000","4.21721","3921.36"
"50.70000","4.22557","3926.26"
"50.80000","4.23384","3930.84"
"50.90000","4.24180","3934.92"
"51.00000","4.24996","3939.74"
"51.10000","4.25823","3943.69"
"51.20000","4.26680","3949.22"
"51.30000","4.27536","3954.47"
"51.40000","4.28373","3958.64"
"51.50000","4.29220","3962.65"
"51.60000","4.30016","3966.94"
"51.70000","4.30822","3969.83"
"51.80000","4.31679","3974.54"
"51.90000","4.32516","3978.24"
"52.00000","4.33352","3982.08"
"52.10000","4.34199","3986.67"
"52.20000","4.35056","3989.83"
"52.30000","4.35842","3992.64"
"52.40000","4.36648","3995.57"
"52.50000","4.37495","3998.89"
"52.60000","4.38372","4002.89"
"52.70000","4.39188","4006.2"
"52.80000","4.40025","4009.34"
"52.90000","4.40831","4011.05"
"53.00000","4.41627","4013.13"
"53.10000","4.42454","4015.93"
"53.20000","4.43341","4018.65"
"53.30000","4.44218","4021.07"
"53.40000","4.45034","4023.45"
"53.50000","4.45851","4025.41"
"53.60000","4.46697","4025.72"
"53.70000","4.47524","4027.99"
"53.80000","4.48340","4028.26"
"53.90000","4.49197","4029.05"
"54.00000","4.50064","4029.97"
"54.10000","4.50900","4030"
"54.20000","4.51727","4029.66"
"54.30000","4.52513","4028.96"
"54.40000","4.53319","4027.39"
"54.50000","4.54146","4026.46"
"54.60000","4.55023","4025.51"
"54.70000","4.55869","4025.37"
"54.80000","4.56716","4023.95"
"54.90000","4.57553","4021.5"
"55.00000","4.58349","4017.82"
"55.10000","4.59155","4014.42"
"55.20000","4.60012","4010.73"
"55.30000","4.60879","4006.82"
"55.40000","4.61715","4001.96"
"55.50000","4.62552","3995.36"
"55.60000","4.63338","3988.69"
"55.70000","4.64145","3979.53"
"55.80000","4.64971","3969.27"
"55.90000","4.65828","3957.15"
"56.00000","4.66695","3942.95"
"56.10000","4.67541","3922.79"
"56.20000","4.68378","3888.74"
"56.30000","4.69215","3810.91"
"56.32000","4.69386","3511.65"
"56.32400","4.69426","3161.49"
"56.32800","4.69467","2756.57"
"56.33200","4.69507","2319.95"