File: Data_Processing/Tensile-Data/Sequence_29.csv
General : Start date,"10/29/2024 10:17 AM"
General : End date,"10/29/2024 10:18 AM"
Specimen notes : Specimen note 1,"Day 2, red, 215, batch 12, seq 29"
Test : Rate 1,"5.00000",mm/min

Time,Extension,Load
(s),(mm),(N)
"0.00000","0.00000","0.69299"
"0.10000","0.00131","0.52297"
"0.20000","0.01048","11.35128"
"0.30000","0.02409","38.82401"
"0.40000","0.03276","55.99495"
"0.50000","0.04072","69.09862"
"0.60000","0.04929","83.69020"
"0.70000","0.05826","98.88823"
"0.80000","0.06703","114.466"
"0.90000","0.07529","128.917"
"1.00000","0.08366","144.567"
"1.10000","0.09172","158.776"
"1.20000","0.09999","172.504"
"1.30000","0.10815","186.29"
"1.40000","0.11682","201.26"
"1.50000","0.12539","216.306"
"1.60000","0.13375","230.103"
"1.70000","0.14192","243.778"
"1.80000","0.14998","257.456"
"1.90000","0.15825","271.847"
"2.00000","0.16651","283.617"
"2.10000","0.17518","298.515"
"2.20000","0.18365","312.259"
"2.30000","0.19191","325.817"
"2.40000","0.20028","338.992"
"2.50000","0.20854","353.855"
"2.60000","0.21691","367.089"
"2.70000","0.22507","380.025"
"2.80000","0.23364","394.19"
"2.90000","0.24211","408.918"
"3.00000","0.25047","422.134"
"3.10000","0.25864","436.002"
"3.20000","0.26670","448.745"
"3.30000","0.27497","461.784"
"3.40000","0.28343","474.72"
"3.50000","0.29180","488.108"
"3.60000","0.30016","501.577"
"3.70000","0.30863","514.337"
"3.80000","0.31690","528.347"
"3.90000","0.32496","539.686"
"4.00000","0.33322","552.992"
"4.10000","0.34179","565.841"
"4.20000","0.35016","579.456"
"4.30000","0.35852","592.673"
"4.40000","0.36689","604.76"
"4.50000","0.37505","618.642"
"4.60000","0.38292","630.663"
"4.70000","0.39138","643.17"
"4.80000","0.40005","656.916"
"4.90000","0.40852","669.664"
"5.00000","0.41658","682.43"
"5.10000","0.42505","694.94"
"5.20000","0.43372","708.146"
"5.30000","0.44188","720.22"
"5.40000","0.45014","732.169"
"5.50000","0.45881","744.785"
"5.60000","0.46738","758.381"
"5.70000","0.47554","771.005"
"5.80000","0.48371","782.569"
"5.90000","0.49177","794.146"
"6.00000","0.50014","805.708"
"6.10000","0.50850","818.161"
"6.20000","0.51687","830.962"
"6.30000","0.52544","844.032"
"6.40000","0.53380","856.188"
"6.50000","0.54197","867.849"
"6.60000","0.55013","879.844"
"6.70000","0.55830","891.755"
"6.80000","0.56666","903.333"
"6.90000","0.57513","915.268"
"7.00000","0.58360","926.785"
"7.10000","0.59196","938.765"
"7.20000","0.60002","950.841"
"7.30000","0.60809","961.004"
"7.40000","0.61645","972.419"
"7.50000","0.62492","985.035"
"7.60000","0.63369","996.487"
"7.70000","0.64195","1009.01"
"7.80000","0.65012","1018.55"
"7.90000","0.65828","1030.02"
"8.00000","0.66655","1040.94"
"8.10000","0.67491","1052.06"
"8.20000","0.68338","1063.57"
"8.30000","0.69185","1075.18"
"8.40000","0.70042","1086.36"
"8.50000","0.70898","1096.94"
"8.60000","0.71695","1107.46"
"8.70000","0.72491","1117.96"
"8.80000","0.73327","1128.84"
"8.90000","0.74194","1140.02"
"9.00000","0.75041","1149.79"
"9.10000","0.75877","1160.28"
"9.20000","0.76714","1171.19"
"9.30000","0.77500","1182.1"
"9.40000","0.78296","1192.4"
"9.50000","0.79153","1203.73"
"9.60000","0.80030","1215.25"
"9.70000","0.80877","1225.57"
"9.80000","0.81703","1236.79"
"9.90000","0.82510","1247.53"
"10.00000","0.83316","1257.35"
"10.10000","0.84122","1267.8"
"10.20000","0.84979","1279.17"
"10.30000","0.85846","1289.68"
"10.40000","0.86693","1300.45"
"10.50000","0.87519","1310.93"
"10.60000","0.88325","1319.86"
"10.70000","0.89162","1330.86"
"10.80000","0.89999","1340.91"
"10.90000","0.90845","1352.11"
"11.00000","0.91702","1361.92"
"11.10000","0.92549","1371.9"
"11.20000","0.93375","1382.72"
"11.30000","0.94182","1391.12"
"11.40000","0.94998","1399.86"
"11.50000","0.95814","1408.8"
"11.60000","0.96671","1418.59"
"11.70000","0.97548","1429.28"
"11.80000","0.98385","1438.07"
"11.90000","0.99201","1447.25"
"12.00000","0.99997","1457.59"
"12.10000","1.00824","1466.3"
"12.20000","1.01671","1474.66"
"12.30000","1.02537","1484.77"
"12.40000","1.03364","1494.27"
"12.50000","1.04200","1503.37"
"12.60000","1.05017","1512.7"
"12.70000","1.05813","1520.75"
"12.80000","1.06630","1528.74"
"12.90000","1.07506","1539.21"
"13.00000","1.08343","1548.82"
"13.10000","1.09180","1557.22"
"13.20000","1.10026","1566.25"
"13.30000","1.10873","1575.06"
"13.40000","1.11649","1584.52"
"13.50000","1.12476","1592.83"
"13.60000","1.13332","1602.58"
"13.70000","1.14189","1612.18"
"13.80000","1.15046","1621.33"
"13.90000","1.15872","1630.21"
"14.00000","1.16689","1638.84"
"14.10000","1.17505","1647.95"
"14.20000","1.18322","1655.42"
"14.30000","1.19168","1664.17"
"14.40000","1.20045","1673.86"
"14.50000","1.20872","1682.68"
"14.60000","1.21688","1691.42"
"14.70000","1.22515","1699.91"
"14.80000","1.23341","1708.79"
"14.90000","1.24178","1716.94"
"15.00000","1.25014","1725.78"
"15.10000","1.25861","1735.04"
"15.20000","1.26708","1744.25"
"15.30000","1.27504","1752.52"
"15.40000","1.28320","1760.44"
"15.50000","1.29167","1768.15"
"15.60000","1.30004","1777.93"
"15.70000","1.30840","1786.2"
"15.80000","1.31707","1795.87"
"15.90000","1.32544","1803.9"
"16.00000","1.33380","1812.02"
"16.10000","1.34166","1820.47"
"16.20000","1.34983","1827.28"
"16.30000","1.35840","1836.16"
"16.40000","1.36696","1845.44"
"16.50000","1.37543","1853.35"
"16.60000","1.38359","1861.89"
"16.70000","1.39176","1870.26"
"16.80000","1.40002","1877.38"
"16.90000","1.40829","1886.24"
"17.00000","1.41665","1894.34"
"17.10000","1.42532","1902.23"
"17.20000","1.43389","1911.06"
"17.30000","1.44216","1918.77"
"17.40000","1.45032","1927.68"
"17.50000","1.45838","1934.73"
"17.60000","1.46665","1942.19"
"17.70000","1.47491","1950.82"
"17.80000","1.48338","1959.27"
"17.90000","1.49205","1967.87"
"18.00000","1.50041","1976.2"
"18.10000","1.50848","1983.82"
"18.20000","1.51654","1991.4"
"18.30000","1.52481","1999.37"
"18.40000","1.53347","2008.59"
"18.50000","1.54194","2016.6"
"18.60000","1.55031","2025.26"
"18.70000","1.55877","2034.04"
"18.80000","1.56674","2042.85"
"18.90000","1.57470","2050.39"
"19.00000","1.58327","2058.42"
"19.10000","1.59204","2067.92"
"19.20000","1.60030","2075.86"
"19.30000","1.60846","2085.02"
"19.40000","1.61703","2092.4"
"19.50000","1.62530","2100.7"
"19.60000","1.63336","2108.78"
"19.70000","1.64173","2116.59"
"19.80000","1.65029","2125.44"
"19.90000","1.65876","2133.83"
"20.00000","1.66713","2142.29"
"20.10000","1.67519","2148.93"
"20.20000","1.68325","2157.13"
"20.30000","1.69142","2165.12"
"20.40000","1.69978","2173.04"
"20.50000","1.70845","2182.9"
"20.60000","1.71702","2190.07"
"20.70000","1.72539","2199.25"
"20.80000","1.73355","2206.33"
"20.90000","1.74151","2215.65"
"21.00000","1.74968","2222.32"
"21.10000","1.75834","2231.05"
"21.20000","1.76681","2238.68"
"21.30000","1.77538","2245.88"
"21.40000","1.78364","2254.3"
"21.50000","1.79171","2262.53"
"21.60000","1.79987","2270.02"
"21.70000","1.80834","2277.95"
"21.80000","1.81701","2286.75"
"21.90000","1.82547","2295.06"
"22.00000","1.83374","2302.65"
"22.10000","1.84210","2310.81"
"22.20000","1.85017","2317.38"
"22.30000","1.85833","2325.33"
"22.40000","1.86660","2333.79"
"22.50000","1.87516","2341.6"
"22.60000","1.88363","2349.94"
"22.70000","1.89200","2357.37"
"22.80000","1.90056","2365.63"
"22.90000","1.90843","2374.08"
"23.00000","1.91639","2381.41"
"23.10000","1.92486","2390.21"
"23.20000","1.93363","2397.92"
"23.30000","1.94189","2404.92"
"23.40000","1.95026","2413.17"
"23.50000","1.95862","2421.16"
"23.60000","1.96648","2428.44"
"23.70000","1.97465","2436.04"
"23.80000","1.98322","2445.29"
"23.90000","1.99198","2453.75"
"24.00000","2.00035","2461.51"
"24.10000","2.00851","2468.93"
"24.20000","2.01678","2477.55"
"24.30000","2.02515","2485.51"
"24.40000","2.03341","2493.61"
"24.50000","2.04178","2502"
"24.60000","2.05034","2509.48"
"24.70000","2.05871","2517.68"
"24.80000","2.06697","2525.04"
"24.90000","2.07494","2532.97"
"25.00000","2.08340","2540.97"
"25.10000","2.09177","2548.75"
"25.20000","2.10014","2557.39"
"25.30000","2.10870","2564.62"
"25.40000","2.11717","2571.69"
"25.50000","2.12544","2580.78"
"25.60000","2.13340","2587.81"
"25.70000","2.14136","2594.88"
"25.80000","2.15003","2602.83"
"25.90000","2.15860","2611.75"
"26.00000","2.16706","2619.25"
"26.10000","2.17523","2626.81"
"26.20000","2.18329","2634.71"
"26.30000","2.19146","2642.09"
"26.40000","2.19982","2651.01"
"26.50000","2.20829","2658.74"
"26.60000","2.21686","2666.54"
"26.70000","2.22522","2674.19"
"26.80000","2.23359","2682.8"
"26.90000","2.24195","2690.2"
"27.00000","2.25002","2698.61"
"27.10000","2.25838","2706.81"
"27.20000","2.26685","2714.77"
"27.30000","2.27511","2722.61"
"27.40000","2.28368","2730.86"
"27.50000","2.29235","2738.52"
"27.60000","2.30051","2746.06"
"27.70000","2.30848","2753.49"
"27.80000","2.31664","2761.42"
"27.90000","2.32521","2768.9"
"28.00000","2.33388","2777.73"
"28.10000","2.34204","2784.59"
"28.20000","2.35021","2792.57"
"28.30000","2.35857","2801.39"
"28.40000","2.36674","2808.71"
"28.50000","2.37490","2816.96"
"28.60000","2.38377","2825.46"
"28.70000","2.39214","2833.19"
"28.80000","2.40020","2841.14"
"28.90000","2.40826","2848.31"
"29.00000","2.41673","2856.66"
"29.10000","2.42499","2864.14"
"29.20000","2.43316","2872.29"
"29.30000","2.44173","2879.48"
"29.40000","2.45009","2886.58"
"29.50000","2.45836","2895.48"
"29.60000","2.46682","2903.71"
"29.70000","2.47499","2911.36"
"29.80000","2.48325","2918.59"
"29.90000","2.49152","2926.03"
"30.00000","2.50019","2934.78"
"30.10000","2.50885","2941.98"
"30.20000","2.51712","2950.27"
"30.30000","2.52528","2957.98"
"30.40000","2.53325","2966.54"
"30.50000","2.54141","2972.76"
"30.60000","2.55008","2981.03"
"30.70000","2.55875","2989.26"
"30.80000","2.56721","2996.96"
"30.90000","2.57538","3004.73"
"31.00000","2.58344","3011.94"
"31.10000","2.59171","3018.91"
"31.20000","2.60007","3027.3"
"31.30000","2.60854","3034.43"
"31.40000","2.61701","3042.89"
"31.50000","2.62527","3050.32"
"31.60000","2.63364","3058.6"
"31.70000","2.64180","3066.15"
"31.80000","2.64986","3072.53"
"31.90000","2.65813","3080.64"
"32.00000","2.66660","3087.97"
"32.10000","2.67486","3096.49"
"32.20000","2.68323","3103.74"
"32.30000","2.69190","3112.19"
"32.40000","2.70006","3119.75"
"32.50000","2.70802","3126.39"
"32.60000","2.71639","3134.94"
"32.70000","2.72526","3142.04"
"32.80000","2.73372","3150.24"
"32.90000","2.74199","3157.79"
"33.00000","2.75056","3164.73"
"33.10000","2.75852","3171.86"
"33.20000","2.76658","3179.66"
"33.30000","2.77485","3187.25"
"33.40000","2.78372","3195.52"
"33.50000","2.79208","3202.7"
"33.60000","2.80025","3211.01"
"33.70000","2.80841","3217.95"
"33.80000","2.81668","3225.23"
"33.90000","2.82504","3232.46"
"34.00000","2.83341","3241.65"
"34.10000","2.84188","3249.12"
"34.20000","2.85044","3257.87"
"34.30000","2.85871","3264.86"
"34.40000","2.86677","3271.64"
"34.50000","2.87494","3279.19"
"34.60000","2.88340","3286.73"
"34.70000","2.89147","3294.37"
"34.80000","2.90014","3301.97"
"34.90000","2.90880","3309.5"
"35.00000","2.91717","3316.59"
"35.10000","2.92523","3323.62"
"35.20000","2.93309","3330.89"
"35.30000","2.94146","3337.94"
"35.40000","2.95013","3346.32"
"35.50000","2.95880","3353.64"
"35.60000","2.96706","3361.62"
"35.70000","2.97513","3368.62"
"35.80000","2.98319","3375.46"
"35.90000","2.99155","3383.16"
"36.00000","3.00002","3390.04"
"36.10000","3.00859","3397.89"
"36.20000","3.01706","3405.55"
"36.30000","3.02552","3412.76"
"36.40000","3.03369","3419.31"
"36.50000","3.04165","3426.67"
"36.60000","3.04991","3433.93"
"36.70000","3.05838","3440.93"
"36.80000","3.06675","3448.21"
"36.90000","3.07511","3455.86"
"37.00000","3.08378","3463.62"
"37.10000","3.09215","3471.29"
"37.20000","3.10001","3479.32"
"37.30000","3.10797","3485.77"
"37.40000","3.11664","3493.37"
"37.50000","3.12531","3502.19"
"37.60000","3.13367","3509.55"
"37.70000","3.14204","3515.43"
"37.80000","3.15031","3523.33"
"37.90000","3.15817","3530.59"
"38.00000","3.16643","3537.6"
"38.10000","3.17530","3544.85"
"38.20000","3.18397","3552.46"
"38.30000","3.19213","3558.79"
"38.40000","3.20020","3565.81"
"38.50000","3.20856","3572.76"
"38.60000","3.21683","3580.36"
"38.70000","3.22499","3586.76"
"38.80000","3.23356","3593"
"38.90000","3.24193","3601.79"
"39.00000","3.25039","3608.52"
"39.10000","3.25856","3615.02"
"39.20000","3.26652","3621.71"
"39.30000","3.27489","3629.07"
"39.40000","3.28325","3635.97"
"39.50000","3.29202","3643.48"
"39.60000","3.30059","3650.77"
"39.70000","3.30885","3657.43"
"39.80000","3.31702","3664.56"
"39.90000","3.32508","3672.08"
"40.00000","3.33314","3677.31"
"40.10000","3.34151","3684.45"
"40.20000","3.35028","3691.9"
"40.30000","3.35875","3698.89"
"40.40000","3.36691","3705.33"
"40.50000","3.37518","3712.11"
"40.60000","3.38334","3718.55"
"40.70000","3.39181","3725.39"
"40.80000","3.40017","3732.57"
"40.90000","3.40864","3739.52"
"41.00000","3.41701","3746.62"
"41.10000","3.42527","3753.04"
"41.20000","3.43354","3759.35"
"41.30000","3.44160","3766.85"
"41.40000","3.44996","3772.59"
"41.50000","3.45853","3717.29"
"41.60000","3.46680","3726.98"
"41.70000","3.47526","3737.78"
"41.80000","3.48383","3747.13"
"41.90000","3.49210","3756.27"
"42.00000","3.50006","3763.86"
"42.10000","3.50812","3771.43"
"42.20000","3.51679","3779.29"
"42.30000","3.52536","3786.5"
"42.40000","3.53352","3793.04"
"42.50000","3.54179","3801.25"
"42.60000","3.55015","3809.48"
"42.70000","3.55822","3817.1"
"42.80000","3.56648","3825.57"
"42.90000","3.57515","3832.98"
"43.00000","3.58372","3840.45"
"43.10000","3.59188","3848.9"
"43.20000","3.59995","3855.76"
"43.30000","3.60831","3862.42"
"43.40000","3.61668","3869.52"
"43.50000","3.62494","3876.84"
"43.60000","3.63361","3883.96"
"43.70000","3.64198","3891.93"
"43.80000","3.65044","3898.67"
"43.90000","3.65861","3905.76"
"44.00000","3.66667","3911.64"
"44.10000","3.67524","3918.78"
"44.20000","3.68330","3926.34"
"44.30000","3.69177","3932.39"
"44.40000","3.70034","3939.19"
"44.50000","3.70890","3946.48"
"44.60000","3.71717","3952.81"
"44.70000","3.72503","3958.47"
"44.80000","3.73330","3965.17"
"44.90000","3.74166","3970.87"
"45.00000","3.75043","3978.93"
"45.10000","3.75890","3984.46"
"45.20000","3.76696","3990.41"
"45.30000","3.77492","3996.21"
"45.40000","3.78309","4001.4"
"45.50000","3.79155","4008.68"
"45.60000","3.80002","4014.2"
"45.70000","3.80869","4020.63"
"45.80000","3.81695","4026.12"
"45.90000","3.82542","4032.26"
"46.00000","3.83338","4037.53"
"46.10000","3.84155","4042.83"
"46.20000","3.85012","4049.23"
"46.30000","3.85828","4055.28"
"46.40000","3.86675","4061.02"
"46.50000","3.87541","4067.23"
"46.60000","3.88378","4072.98"
"46.70000","3.89184","4078.79"
"46.80000","3.89981","4083.93"
"46.90000","3.90817","4089.87"
"47.00000","3.91694","4094.58"
"47.10000","3.92541","4100.2"
"47.20000","3.93377","4072"
"47.30000","3.94224","4072.98"
"47.40000","3.95010","4080.13"
"47.50000","3.95807","4087.63"
"47.60000","3.96663","4093.92"
"47.70000","3.97540","4101.17"
"47.80000","3.98377","4106.81"
"47.90000","3.99173","4112.91"
"48.00000","3.99999","4117.73"
"48.10000","4.00836","4123.39"
"48.20000","4.01653","4127.69"
"48.30000","4.02499","4133.13"
"48.40000","4.03346","4139.86"
"48.50000","4.04193","4145.89"
"48.60000","4.05039","4152.69"
"48.70000","4.05825","4156.8"
"48.80000","4.06642","4161.35"
"48.90000","4.07478","4167.22"
"49.00000","4.08325","4171.81"
"49.10000","4.09192","4177.34"
"49.20000","4.10059","4180.99"
"49.30000","4.10885","4185.38"
"49.40000","4.11692","4189.14"
"49.50000","4.12478","4192.74"
"49.60000","4.13314","4196.38"
"49.70000","4.14191","4200.84"
"49.80000","4.15058","4205.1"
"49.90000","4.15885","4208.05"
"50.00000","4.16691","4211.34"
"50.10000","4.17497","4214.65"
"50.20000","4.18334","4218.19"
"50.30000","4.19170","4221.07"
"50.40000","4.20027","4222.84"
"50.50000","4.20874","4226"
"50.60000","4.21721","4228.55"
"50.70000","4.22517","4229.55"
"50.80000","4.23313","4230.87"
"50.90000","4.24150","4232.14"
"51.00000","4.25006","4233.67"
"51.10000","4.25843","4234.17"
"51.20000","4.26680","4235.72"
"51.30000","4.27536","4235.19"
"51.40000","4.28373","4236.22"
"51.50000","4.29169","4234.73"
"51.60000","4.29976","4234.34"
"51.70000","4.30832","4234.15"
"51.80000","4.31709","4232.81"
"51.90000","4.32526","4231.58"
"52.00000","4.33372","4229.67"
"52.10000","4.34199","4227.48"
"52.20000","4.34995","4224.98"
"52.30000","4.35822","4221.28"
"52.40000","4.36678","4218.21"
"52.50000","4.37555","4213.95"
"52.60000","4.38372","4208.78"
"52.70000","4.39198","4203.25"
"52.80000","4.40025","4195.23"
"52.90000","4.40861","4186.58"
"53.00000","4.41688","4176.26"
"53.10000","4.42534","4164.22"
"53.20000","4.43371","4149.4"
"53.30000","4.44218","4131.07"
"53.40000","4.45024","4103.3"
"53.50000","4.45830","4055.84"
"53.56600","4.46385","3692.21"
"53.57000","4.46425","3327.38"
"53.57400","4.46465","2897.98"
"53.57800","4.46506","2438.96"