File: Data_Processing/Tensile-Data/Sequence_55.csv
General : Start date,"11/5/2024 8:44 AM"
General : End date,"11/5/2024 8:45 AM"
Specimen notes : Specimen note 1,"Day 3, green, 215, batch 20, seq 55"
Test : Rate 1,"5.00000",mm/min

Time,Extension,Load
(s),(mm),(N)
"0.00000","0.00000","0.57414"
"0.10000","0.00121","-0.14984"
"0.20000","0.00877","7.99882"
"0.30000","0.02228","33.90606"
"0.40000","0.03165","54.49552"
"0.50000","0.04002","68.65695"
"0.60000","0.04929","84.48963"
"0.70000","0.05806","100.915"
"0.80000","0.06652","115.52"
"0.90000","0.07519","130.215"
"1.00000","0.08366","145.299"
"1.10000","0.09162","157.42"
"1.20000","0.09968","171.551"
"1.30000","0.10825","185.307"
"1.40000","0.11682","199.669"
"1.50000","0.12539","213.811"
"1.60000","0.13365","227.667"
"1.70000","0.14182","241.173"
"1.80000","0.14988","254.738"
"1.90000","0.15804","267.689"
"2.00000","0.16671","281.986"
"2.10000","0.17528","296.741"
"2.20000","0.18365","309.567"
"2.30000","0.19191","322.825"
"2.40000","0.20018","335.826"
"2.50000","0.20834","349.003"
"2.60000","0.21650","362.253"
"2.70000","0.22507","376.179"
"2.80000","0.23364","390.679"
"2.90000","0.24190","404.38"
"3.00000","0.25027","417.148"
"3.10000","0.25864","430.279"
"3.20000","0.26670","443.834"
"3.30000","0.27497","456.779"
"3.40000","0.28333","469.58"
"3.50000","0.29190","483.366"
"3.60000","0.30026","496.145"
"3.70000","0.30853","509.472"
"3.80000","0.31669","521.618"
"3.90000","0.32486","533.724"
"4.00000","0.33312","547.224"
"4.10000","0.34169","559.798"
"4.20000","0.35036","573.696"
"4.30000","0.35872","586.194"
"4.40000","0.36659","598.765"
"4.50000","0.37475","611.216"
"4.60000","0.38312","624.826"
"4.70000","0.39168","637.808"
"4.80000","0.40015","649.932"
"4.90000","0.40852","662.247"
"5.00000","0.41658","674.098"
"5.10000","0.42495","686.519"
"5.20000","0.43341","699.525"
"5.30000","0.44178","710.958"
"5.40000","0.45014","722.806"
"5.50000","0.45871","735.345"
"5.60000","0.46708","746.951"
"5.70000","0.47534","758.586"
"5.80000","0.48361","771.427"
"5.90000","0.49167","782.207"
"6.00000","0.50004","794.003"
"6.10000","0.50850","805.946"
"6.20000","0.51697","818.514"
"6.30000","0.52524","829.984"
"6.40000","0.53360","841.645"
"6.50000","0.54177","852.55"
"6.60000","0.54973","864.761"
"6.70000","0.55809","874.576"
"6.80000","0.56676","887.721"
"6.90000","0.57523","899.112"
"7.00000","0.58360","909.724"
"7.10000","0.59176","921.249"
"7.20000","0.59992","932.515"
"7.30000","0.60809","942.828"
"7.40000","0.61655","953.619"
"7.50000","0.62532","964.885"
"7.60000","0.63359","974.948"
"7.70000","0.64135","986.206"
"7.80000","0.64982","996.971"
"7.90000","0.65848","1007.69"
"8.00000","0.66665","1018.77"
"8.10000","0.67491","1028.05"
"8.20000","0.68338","1039.78"
"8.30000","0.69215","1050.22"
"8.40000","0.70042","1060.03"
"8.50000","0.70848","1071.11"
"8.60000","0.71674","1081.16"
"8.70000","0.72491","1090.64"
"8.80000","0.73317","1102.09"
"8.90000","0.74174","1111.35"
"9.00000","0.75031","1122.16"
"9.10000","0.75857","1131.95"
"9.20000","0.76654","1141.87"
"9.30000","0.77470","1151.67"
"9.40000","0.78317","1160.94"
"9.50000","0.79163","1171.75"
"9.60000","0.80000","1182.02"
"9.70000","0.80847","1192.24"
"9.80000","0.81673","1202.03"
"9.90000","0.82479","1211.49"
"10.00000","0.83286","1220.83"
"10.10000","0.84143","1230.66"
"10.20000","0.85009","1241.52"
"10.30000","0.85846","1250.57"
"10.40000","0.86683","1260.52"
"10.50000","0.87529","1270.07"
"10.60000","0.88346","1278.87"
"10.70000","0.89162","1289.52"
"10.80000","0.89999","1298.85"
"10.90000","0.90835","1307.18"
"11.00000","0.91682","1317.54"
"11.10000","0.92529","1326.41"
"11.20000","0.93365","1334.63"
"11.30000","0.94161","1343.9"
"11.40000","0.94978","1352.36"
"11.50000","0.95814","1360.48"
"11.60000","0.96671","1370.65"
"11.70000","0.97498","1379.7"
"11.80000","0.98365","1388.44"
"11.90000","0.99201","1397.44"
"12.00000","0.99987","1405.35"
"12.10000","1.00794","1413.69"
"12.20000","1.01650","1421.62"
"12.30000","1.02517","1429.76"
"12.40000","1.03344","1438.64"
"12.50000","1.04160","1445.7"
"12.60000","1.05007","1454.39"
"12.70000","1.05833","1463.11"
"12.80000","1.06630","1470.65"
"12.90000","1.07476","1479.19"
"13.00000","1.08343","1488.46"
"13.10000","1.09170","1496.42"
"13.20000","1.10016","1505.27"
"13.30000","1.10853","1512.88"
"13.40000","1.11659","1520.74"
"13.50000","1.12476","1528.59"
"13.60000","1.13312","1537.79"
"13.70000","1.14199","1546.53"
"13.80000","1.15066","1554.39"
"13.90000","1.15842","1561.71"
"14.00000","1.16669","1570.2"
"14.10000","1.17505","1579.45"
"14.20000","1.18332","1586.36"
"14.30000","1.19188","1596.22"
"14.40000","1.20045","1604.4"
"14.50000","1.20882","1612.49"
"14.60000","1.21698","1620.53"
"14.70000","1.22484","1627.56"
"14.80000","1.23321","1635.18"
"14.90000","1.24168","1644.82"
"15.00000","1.25024","1653.17"
"15.10000","1.25871","1661.75"
"15.20000","1.26698","1670.19"
"15.30000","1.27514","1679.13"
"15.40000","1.28310","1686.67"
"15.50000","1.29127","1695.03"
"15.60000","1.29994","1703.47"
"15.70000","1.30850","1711.87"
"15.80000","1.31687","1720.65"
"15.90000","1.32534","1728.05"
"16.00000","1.33350","1737.14"
"16.10000","1.34126","1745.18"
"16.20000","1.34963","1753.15"
"16.30000","1.35840","1762.23"
"16.40000","1.36706","1770.02"
"16.50000","1.37533","1779.07"
"16.60000","1.38370","1787.36"
"16.70000","1.39196","1795.4"
"16.80000","1.39982","1802.84"
"16.90000","1.40829","1810.69"
"17.00000","1.41686","1819.2"
"17.10000","1.42532","1827.59"
"17.20000","1.43349","1835.79"
"17.30000","1.44185","1843.93"
"17.40000","1.45002","1852.23"
"17.50000","1.45818","1860.94"
"17.60000","1.46645","1868.02"
"17.70000","1.47511","1875.98"
"17.80000","1.48368","1884.26"
"17.90000","1.49195","1892.12"
"18.00000","1.50011","1900.26"
"18.10000","1.50828","1907.95"
"18.20000","1.51634","1915.09"
"18.30000","1.52481","1924.19"
"18.40000","1.53337","1931.93"
"18.50000","1.54204","1939.92"
"18.60000","1.55031","1947.82"
"18.70000","1.55837","1956.22"
"18.80000","1.56643","1963.65"
"18.90000","1.57480","1972.07"
"19.00000","1.58337","1979.71"
"19.10000","1.59193","1989.07"
"19.20000","1.60030","1996.7"
"19.30000","1.60857","2005.28"
"19.40000","1.61673","2012.73"
"19.50000","1.62479","2020.61"
"19.60000","1.63336","2029.19"
"19.70000","1.64183","2037.71"
"19.80000","1.65019","2046.29"
"19.90000","1.65866","2053.53"
"20.00000","1.66682","2061.44"
"20.10000","1.67499","2069.34"
"20.20000","1.68315","2077.36"
"20.30000","1.69132","2084.71"
"20.40000","1.69968","2092.43"
"20.50000","1.70825","2100.58"
"20.60000","1.71682","2108.59"
"20.70000","1.72508","2116.25"
"20.80000","1.73325","2124.68"
"20.90000","1.74121","2132.38"
"21.00000","1.74988","2139.56"
"21.10000","1.75855","2149.3"
"21.20000","1.76701","2156.85"
"21.30000","1.77518","2164.13"
"21.40000","1.78344","2171.8"
"21.50000","1.79171","2180.55"
"21.60000","1.79987","2187.21"
"21.70000","1.80834","2195.46"
"21.80000","1.81691","2204.92"
"21.90000","1.82507","2211.59"
"22.00000","1.83344","2220.26"
"22.10000","1.84190","2228"
"22.20000","1.84997","2236"
"22.30000","1.85823","2243.89"
"22.40000","1.86650","2251.94"
"22.50000","1.87506","2261.12"
"22.60000","1.88353","2268.21"
"22.70000","1.89159","2276.08"
"22.80000","1.89986","2283.85"
"22.90000","1.90843","2291.56"
"23.00000","1.91689","2300.74"
"23.10000","1.92496","2309.5"
"23.20000","1.93352","2316.89"
"23.30000","1.94219","2324.55"
"23.40000","1.95026","2333.49"
"23.50000","1.95832","2340.98"
"23.60000","1.96658","2347.7"
"23.70000","1.97505","2356.42"
"23.80000","1.98352","2364.5"
"23.90000","1.99168","2372.15"
"24.00000","2.00015","2379.87"
"24.10000","2.00851","2388.44"
"24.20000","2.01648","2396.82"
"24.30000","2.02474","2403.41"
"24.40000","2.03321","2411.43"
"24.50000","2.04157","2420.48"
"24.60000","2.05004","2428.67"
"24.70000","2.05851","2436.94"
"24.80000","2.06697","2444.7"
"24.90000","2.07504","2452.28"
"25.00000","2.08310","2459.8"
"25.10000","2.09147","2469.53"
"25.20000","2.10014","2476.79"
"25.30000","2.10860","2485.47"
"25.40000","2.11697","2493.84"
"25.50000","2.12523","2500.43"
"25.60000","2.13330","2509.34"
"25.70000","2.14136","2516.88"
"25.80000","2.14993","2525.13"
"25.90000","2.15860","2534.07"
"26.00000","2.16686","2541.16"
"26.10000","2.17513","2549.73"
"26.20000","2.18339","2557.27"
"26.30000","2.19146","2564.38"
"26.40000","2.19972","2572.95"
"26.50000","2.20839","2582.06"
"26.60000","2.21675","2589.49"
"26.70000","2.22502","2597.05"
"26.80000","2.23339","2605.74"
"26.90000","2.24195","2614.16"
"27.00000","2.25012","2621.66"
"27.10000","2.25828","2629.29"
"27.20000","2.26665","2637.48"
"27.30000","2.27542","2646.51"
"27.40000","2.28378","2653.75"
"27.50000","2.29205","2661.58"
"27.60000","2.30021","2670.43"
"27.70000","2.30817","2677.62"
"27.80000","2.31644","2684.82"
"27.90000","2.32511","2694.1"
"28.00000","2.33378","2702.11"
"28.10000","2.34214","2711.13"
"28.20000","2.35021","2717.75"
"28.30000","2.35817","2725.04"
"28.40000","2.36653","2732.9"
"28.50000","2.37500","2741.21"
"28.60000","2.38357","2748.88"
"28.70000","2.39193","2757.28"
"28.80000","2.40020","2764.42"
"28.90000","2.40826","2771.39"
"29.00000","2.41633","2779.22"
"29.10000","2.42469","2786.44"
"29.20000","2.43336","2794.63"
"29.30000","2.44173","2803.91"
"29.40000","2.45019","2810.59"
"29.50000","2.45866","2818.45"
"29.60000","2.46692","2826.12"
"29.70000","2.47489","2833.1"
"29.80000","2.48305","2840.65"
"29.90000","2.49172","2849.91"
"30.00000","2.50029","2857.38"
"30.10000","2.50865","2865.12"
"30.20000","2.51712","2872.46"
"30.30000","2.52518","2879.94"
"30.40000","2.53304","2888.31"
"30.50000","2.54151","2894.4"
"30.60000","2.55018","2903.83"
"30.70000","2.55885","2911.01"
"30.80000","2.56711","2918.37"
"30.90000","2.57528","2926.09"
"31.00000","2.58334","2933.86"
"31.10000","2.59140","2939.71"
"31.20000","2.59967","2947.84"
"31.30000","2.60834","2955.26"
"31.40000","2.61670","2962.11"
"31.50000","2.62487","2969.6"
"31.60000","2.63313","2977.43"
"31.70000","2.64150","2983.78"
"31.80000","2.64976","2992.69"
"31.90000","2.65803","2998.51"
"32.00000","2.66660","3008.07"
"32.10000","2.67526","3015.33"
"32.20000","2.68353","3022.48"
"32.30000","2.69179","3031.08"
"32.40000","2.69996","3038.83"
"32.50000","2.70812","3044.58"
"32.60000","2.71669","3053.85"
"32.70000","2.72526","3061.14"
"32.80000","2.73393","3067.73"
"32.90000","2.74199","3075.88"
"33.00000","2.74995","3083.25"
"33.10000","2.75822","3089.82"
"33.20000","2.76668","3097.93"
"33.30000","2.77495","3106.33"
"33.40000","2.78352","3113.82"
"33.50000","2.79178","3120.99"
"33.60000","2.80025","3128.42"
"33.70000","2.80841","3135.32"
"33.80000","2.81648","3142.65"
"33.90000","2.82484","3149.81"
"34.00000","2.83341","3157.57"
"34.10000","2.84198","3164.78"
"34.20000","2.85034","3172.18"
"34.30000","2.85871","3180.68"
"34.40000","2.86677","3187.19"
"34.50000","2.87484","3194.57"
"34.60000","2.88310","3201.92"
"34.70000","2.89177","3209.38"
"34.80000","2.90024","3216.62"
"34.90000","2.90860","3224.26"
"35.00000","2.91687","3230.89"
"35.10000","2.92493","3238.59"
"35.20000","2.93309","3245.58"
"35.30000","2.94156","3253.87"
"35.40000","2.95023","3261.71"
"35.50000","2.95870","3269.23"
"35.60000","2.96686","3275.98"
"35.70000","2.97513","3283.68"
"35.80000","2.98329","3291.06"
"35.90000","2.99155","3298.2"
"36.00000","3.00002","3306.16"
"36.10000","3.00849","3313.66"
"36.20000","3.01685","3320.31"
"36.30000","3.02532","3328.45"
"36.40000","3.03369","3333.92"
"36.50000","3.04185","3342.4"
"36.60000","3.04991","3349.53"
"36.70000","3.05818","3356.78"
"36.80000","3.06685","3365.06"
"36.90000","3.07542","3372.76"
"37.00000","3.08358","3378.61"
"37.10000","3.09174","3385.45"
"37.20000","3.09981","3393.09"
"37.30000","3.10797","3400"
"37.40000","3.11654","3407.67"
"37.50000","3.12511","3415.29"
"37.60000","3.13367","3423.07"
"37.70000","3.14194","3430.87"
"37.80000","3.15000","3437.7"
"37.90000","3.15827","3443.5"
"38.00000","3.16663","3451.07"
"38.10000","3.17520","3458.34"
"38.20000","3.18367","3466.01"
"38.30000","3.19193","3473.45"
"38.40000","3.20010","3479.83"
"38.50000","3.20816","3486.91"
"38.60000","3.21653","3493.74"
"38.70000","3.22489","3500.83"
"38.80000","3.23346","3509.37"
"38.90000","3.24203","3516.72"
"39.00000","3.25039","3523.25"
"39.10000","3.25866","3530.27"
"39.20000","3.26672","3537.37"
"39.30000","3.27479","3542.84"
"39.40000","3.28325","3550.96"
"39.50000","3.29172","3558.89"
"39.60000","3.30029","3565.61"
"39.70000","3.30875","3572.4"
"39.80000","3.31682","3578.47"
"39.90000","3.32478","3584.29"
"40.00000","3.33294","3591.77"
"40.10000","3.34171","3598.98"
"40.20000","3.35018","3606.81"
"40.30000","3.35854","3612.05"
"40.40000","3.36691","3618.89"
"40.50000","3.37518","3626.16"
"40.60000","3.38324","3632.15"
"40.70000","3.39140","3638.28"
"40.80000","3.40007","3647.04"
"40.90000","3.40854","3653.65"
"41.00000","3.41690","3660.14"
"41.10000","3.42527","3668.13"
"41.20000","3.43364","3674.37"
"41.30000","3.44170","3680.58"
"41.40000","3.44986","3687.43"
"41.50000","3.45833","3694.01"
"41.60000","3.46700","3702.28"
"41.70000","3.47547","3708.4"
"41.80000","3.48363","3714.28"
"41.90000","3.49169","3720.7"
"42.00000","3.49976","3726.99"
"42.10000","3.50812","3734.14"
"42.20000","3.51679","3741.19"
"42.30000","3.52546","3746.72"
"42.40000","3.53372","3753.02"
"42.50000","3.54149","3759.25"
"42.60000","3.54955","3764.79"
"42.70000","3.55802","3771.65"
"42.80000","3.56658","3778.85"
"42.90000","3.57515","3783.96"
"43.00000","3.58352","3791.29"
"43.10000","3.59188","3797.44"
"43.20000","3.60005","3803.11"
"43.30000","3.60811","3808.64"
"43.40000","3.61658","3815.38"
"43.50000","3.62514","3821.09"
"43.60000","3.63351","3826.75"
"43.70000","3.64208","3833.94"
"43.80000","3.65054","3840.34"
"43.90000","3.65861","3845.2"
"44.00000","3.66667","3850.57"
"44.10000","3.67494","3857.52"
"44.20000","3.68340","3862.92"
"44.30000","3.69187","3869.01"
"44.40000","3.70034","3875.41"
"44.50000","3.70860","3880.92"
"44.60000","3.71666","3885.55"
"44.70000","3.72483","3892.24"
"44.80000","3.73330","3898.73"
"44.90000","3.74186","3903.3"
"45.00000","3.75023","3909.65"
"45.10000","3.75859","3915.45"
"45.20000","3.76676","3920.37"
"45.30000","3.77502","3925.73"
"45.40000","3.78309","3930.37"
"45.50000","3.79155","3935.34"
"45.60000","3.80012","3941.24"
"45.70000","3.80829","3946.16"
"45.80000","3.81665","3950.97"
"45.90000","3.82512","3955.73"
"46.00000","3.83348","3960.22"
"46.10000","3.84155","3965.86"
"46.20000","3.84991","3969.99"
"46.30000","3.85858","3975.01"
"46.40000","3.86715","3981.38"
"46.50000","3.87531","3984.76"
"46.60000","3.88348","3988.66"
"46.70000","3.89164","3992.66"
"46.80000","3.89981","3996.83"
"46.90000","3.90817","3999.81"
"47.00000","3.91694","4004.28"
"47.10000","3.92551","4009.67"
"47.20000","3.93357","4011.81"
"47.30000","3.94164","4015.69"
"47.40000","3.94990","4018.51"
"47.50000","3.95837","4019.99"
"47.60000","3.96673","4023.86"
"47.70000","3.97520","4026.56"
"47.80000","3.98357","4028.85"
"47.90000","3.99163","4032.46"
"48.00000","3.99989","4033.61"
"48.10000","4.00806","4035.11"
"48.20000","4.01663","4036.9"
"48.30000","4.02509","4038.61"
"48.40000","4.03336","4040.04"
"48.50000","4.04193","4040.06"
"48.60000","4.05029","4040.9"
"48.70000","4.05846","4040.77"
"48.80000","4.06652","4039.38"
"48.90000","4.07488","4038.15"
"49.00000","4.08355","4039.01"
"49.10000","4.09202","4037.55"
"49.20000","4.10039","4034.87"
"49.30000","4.10865","4033.56"
"49.40000","4.11661","4030.13"
"49.50000","4.12478","4025.48"
"49.60000","4.13324","4022.52"
"49.70000","4.14191","4018.89"
"49.80000","4.15028","4012.36"
"49.90000","4.15854","4006.46"
"50.00000","4.16671","3998.28"
"50.10000","4.17497","3989.1"
"50.20000","4.18314","3978.57"
"50.30000","4.19160","3966.07"
"50.40000","4.20017","3950.83"
"50.50000","4.20864","3930.66"
"50.60000","4.21680","3900.76"
"50.70000","4.22527","3851.44"
"50.76600","4.23071","3530.07"
"50.77000","4.23101","3189.96"
"50.77400","4.23142","2790.19"
"50.77800","4.23192","2353.97"
"50.78000","4.23212","2138.89"