File: Data_Processing/Tensile-Data/Sequence_33.csv
General : Start date,"10/29/2024 10:27 AM"
General : End date,"10/29/2024 10:28 AM"
Specimen notes : Specimen note 1,"Day 2, blue, 215, batch 4, seq 33"
Test : Rate 1,"5.00000",mm/min

Time,Extension,Load
(s),(mm),(N)
"0.00000","0.00000","0.32550"
"0.10000","0.00101","-0.37967"
"0.20000","0.00947","10.69310"
"0.30000","0.02318","36.21955"
"0.40000","0.03235","53.55503"
"0.50000","0.04072","66.21992"
"0.60000","0.04959","80.60544"
"0.70000","0.05786","92.86211"
"0.80000","0.06642","106.789"
"0.90000","0.07499","120.821"
"1.00000","0.08356","135.531"
"1.10000","0.09192","148.485"
"1.20000","0.10019","162.028"
"1.30000","0.10876","175.513"
"1.40000","0.11682","189.038"
"1.50000","0.12498","203.738"
"1.60000","0.13355","217.73"
"1.70000","0.14232","231.15"
"1.80000","0.15059","244.22"
"1.90000","0.15885","257.123"
"2.00000","0.16691","270.421"
"2.10000","0.17498","282.053"
"2.20000","0.18324","294.943"
"2.30000","0.19181","307.901"
"2.40000","0.20038","323.361"
"2.50000","0.20884","335.979"
"2.60000","0.21691","349.296"
"2.70000","0.22497","361.635"
"2.80000","0.23303","373.762"
"2.90000","0.24160","386.598"
"3.00000","0.25017","400.682"
"3.10000","0.25864","413.495"
"3.20000","0.26690","425.571"
"3.30000","0.27517","438.389"
"3.40000","0.28333","450.555"
"3.50000","0.29160","462.876"
"3.60000","0.29986","475.212"
"3.70000","0.30853","486.832"
"3.80000","0.31700","499.001"
"3.90000","0.32526","511.455"
"4.00000","0.33343","523.606"
"4.10000","0.34169","535.682"
"4.20000","0.35006","548.536"
"4.30000","0.35842","561.045"
"4.40000","0.36699","572.669"
"4.50000","0.37536","584.523"
"4.60000","0.38392","597.103"
"4.70000","0.39199","609.197"
"4.80000","0.39995","620.738"
"4.90000","0.40842","632.117"
"5.00000","0.41688","643.96"
"5.10000","0.42505","654.602"
"5.20000","0.43341","666.863"
"5.30000","0.44208","678.057"
"5.40000","0.45004","688.701"
"5.50000","0.45821","699.866"
"5.60000","0.46657","709.88"
"5.70000","0.47514","722.196"
"5.80000","0.48361","732.568"
"5.90000","0.49177","744.301"
"6.00000","0.50014","755.231"
"6.10000","0.50820","764.989"
"6.20000","0.51626","775.776"
"6.30000","0.52473","786.902"
"6.40000","0.53350","797.621"
"6.50000","0.54197","809.177"
"6.60000","0.54983","819.617"
"6.70000","0.55830","830.861"
"6.80000","0.56686","842.003"
"6.90000","0.57523","852.721"
"7.00000","0.58349","862.451"
"7.10000","0.59206","872.346"
"7.20000","0.60053","883.423"
"7.30000","0.60869","893.207"
"7.40000","0.61696","902.683"
"7.50000","0.62502","912.582"
"7.60000","0.63329","922.297"
"7.70000","0.64165","932.122"
"7.80000","0.65012","941.088"
"7.90000","0.65859","951.701"
"8.00000","0.66685","961.123"
"8.10000","0.67532","971.646"
"8.20000","0.68348","981.17"
"8.30000","0.69155","990.958"
"8.40000","0.69991","1000.82"
"8.50000","0.70848","1009.83"
"8.60000","0.71695","1020.65"
"8.70000","0.72521","1029.23"
"8.80000","0.73327","1038.37"
"8.90000","0.74134","1047.43"
"9.00000","0.74980","1055.51"
"9.10000","0.75847","1064.24"
"9.20000","0.76684","1073.01"
"9.30000","0.77520","1081.29"
"9.40000","0.78347","1090.16"
"9.50000","0.79163","1096.95"
"9.60000","0.79990","1105.33"
"9.70000","0.80826","1113.59"
"9.80000","0.81673","1122.43"
"9.90000","0.82520","1131.37"
"10.00000","0.83387","1140.45"
"10.10000","0.84223","1147.69"
"10.20000","0.85009","1155.64"
"10.30000","0.85826","1163.97"
"10.40000","0.86672","1172.45"
"10.50000","0.87549","1180.73"
"10.60000","0.88366","1189.06"
"10.70000","0.89192","1197.51"
"10.80000","0.90029","1206.08"
"10.90000","0.90825","1213.04"
"11.00000","0.91621","1221.36"
"11.10000","0.92488","1229.89"
"11.20000","0.93355","1239.76"
"11.30000","0.94202","1248.02"
"11.40000","0.95028","1255.98"
"11.50000","0.95845","1263.7"
"11.60000","0.96641","1271.83"
"11.70000","0.97447","1279.78"
"11.80000","0.98324","1289.53"
"11.90000","0.99171","1297.81"
"12.00000","1.00018","1305.13"
"12.10000","1.00844","1313.47"
"12.20000","1.01660","1319.95"
"12.30000","1.02507","1328.73"
"12.40000","1.03324","1337.24"
"12.50000","1.04180","1345.65"
"12.60000","1.05037","1352.58"
"12.70000","1.05874","1359.02"
"12.80000","1.06700","1368.5"
"12.90000","1.07506","1375.43"
"13.00000","1.08323","1381.23"
"13.10000","1.09149","1389.34"
"13.20000","1.10006","1397.42"
"13.30000","1.10893","1405.53"
"13.40000","1.11710","1412.99"
"13.50000","1.12516","1420.97"
"13.60000","1.13332","1427.31"
"13.70000","1.14159","1434.25"
"13.80000","1.14995","1441.36"
"13.90000","1.15852","1450.17"
"14.00000","1.16709","1457.55"
"14.10000","1.17535","1464.51"
"14.20000","1.18352","1472.41"
"14.30000","1.19138","1477.66"
"14.40000","1.19965","1485.06"
"14.50000","1.20831","1491.85"
"14.60000","1.21678","1499.89"
"14.70000","1.22525","1508.58"
"14.80000","1.23392","1514.7"
"14.90000","1.24198","1522.17"
"15.00000","1.24974","1528.61"
"15.10000","1.25811","1536.64"
"15.20000","1.26657","1544.63"
"15.30000","1.27524","1551.41"
"15.40000","1.28361","1560.15"
"15.50000","1.29197","1567.26"
"15.60000","1.30014","1574.95"
"15.70000","1.30830","1582.77"
"15.80000","1.31657","1589.97"
"15.90000","1.32513","1598.76"
"16.00000","1.33380","1605.13"
"16.10000","1.34197","1613.49"
"16.20000","1.35003","1620.88"
"16.30000","1.35850","1628.23"
"16.40000","1.36666","1635.43"
"16.50000","1.37503","1643.72"
"16.60000","1.38339","1650.14"
"16.70000","1.39196","1657.86"
"16.80000","1.40033","1665.94"
"16.90000","1.40849","1672.79"
"17.00000","1.41655","1680.56"
"17.10000","1.42472","1687.95"
"17.20000","1.43298","1695.64"
"17.30000","1.44145","1703.83"
"17.40000","1.45032","1711.53"
"17.50000","1.45879","1719.22"
"17.60000","1.46695","1725.66"
"17.70000","1.47491","1733.4"
"17.80000","1.48308","1740.12"
"17.90000","1.49185","1748.59"
"18.00000","1.50051","1756.81"
"18.10000","1.50868","1763.15"
"18.20000","1.51684","1770.15"
"18.30000","1.52511","1777.73"
"18.40000","1.53327","1785.44"
"18.50000","1.54164","1792.15"
"18.60000","1.55021","1799.68"
"18.70000","1.55857","1808.06"
"18.80000","1.56714","1815.77"
"18.90000","1.57530","1823.56"
"19.00000","1.58337","1830.11"
"19.10000","1.59173","1838.38"
"19.20000","1.60000","1845"
"19.30000","1.60836","1852.83"
"19.40000","1.61673","1859.85"
"19.50000","1.62540","1867.24"
"19.60000","1.63386","1875.21"
"19.70000","1.64173","1883.24"
"19.80000","1.64969","1888.61"
"19.90000","1.65806","1896.96"
"20.00000","1.66682","1903.9"
"20.10000","1.67529","1911.45"
"20.20000","1.68346","1919.02"
"20.30000","1.69192","1926.33"
"20.40000","1.69988","1933.66"
"20.50000","1.70795","1940.11"
"20.60000","1.71652","1947.19"
"20.70000","1.72528","1956.18"
"20.80000","1.73365","1963.15"
"20.90000","1.74181","1971.26"
"21.00000","1.75028","1979.46"
"21.10000","1.75855","1986.24"
"21.20000","1.76671","1993.42"
"21.30000","1.77508","2000.52"
"21.40000","1.78374","2008.87"
"21.50000","1.79211","2016.61"
"21.60000","1.80038","2024.13"
"21.70000","1.80844","2030.26"
"21.80000","1.81660","2038.23"
"21.90000","1.82477","2045.18"
"22.00000","1.83323","2052.62"
"22.10000","1.84180","2060.38"
"22.20000","1.85037","2067.8"
"22.30000","1.85863","2076.31"
"22.40000","1.86670","2083.11"
"22.50000","1.87476","2089.43"
"22.60000","1.88293","2098.05"
"22.70000","1.89170","2105.9"
"22.80000","1.90016","2114.32"
"22.90000","1.90863","2121.04"
"23.00000","1.91689","2128.53"
"23.10000","1.92506","2136.02"
"23.20000","1.93322","2143.42"
"23.30000","1.94159","2150.01"
"23.40000","1.95026","2157.89"
"23.50000","1.95872","2166.81"
"23.60000","1.96699","2174.29"
"23.70000","1.97535","2181.48"
"23.80000","1.98342","2188.94"
"23.90000","1.99158","2195.23"
"24.00000","2.00005","2203.64"
"24.10000","2.00851","2211.17"
"24.20000","2.01688","2218.69"
"24.30000","2.02525","2225.97"
"24.40000","2.03391","2234.39"
"24.50000","2.04188","2241.4"
"24.60000","2.04974","2248.62"
"24.70000","2.05821","2255.73"
"24.80000","2.06697","2263.87"
"24.90000","2.07524","2272.18"
"25.00000","2.08361","2279.17"
"25.10000","2.09187","2287.48"
"25.20000","2.09973","2293"
"25.30000","2.10790","2300.74"
"25.40000","2.11667","2308.49"
"25.50000","2.12544","2315.91"
"25.60000","2.13370","2323.37"
"25.70000","2.14176","2329.88"
"25.80000","2.15003","2336.97"
"25.90000","2.15839","2344.03"
"26.00000","2.16656","2351.62"
"26.10000","2.17503","2358.58"
"26.20000","2.18359","2366.53"
"26.30000","2.19196","2373.79"
"26.40000","2.20043","2381.3"
"26.50000","2.20839","2388.9"
"26.60000","2.21645","2395.26"
"26.70000","2.22472","2403.88"
"26.80000","2.23328","2412.71"
"26.90000","2.24185","2419.53"
"27.00000","2.25032","2427.86"
"27.10000","2.25858","2435.39"
"27.20000","2.26665","2442.77"
"27.30000","2.27471","2449.8"
"27.40000","2.28328","2457.2"
"27.50000","2.29195","2465.78"
"27.60000","2.30031","2473.02"
"27.70000","2.30868","2480.68"
"27.80000","2.31664","2488.99"
"27.90000","2.32481","2495.96"
"28.00000","2.33317","2504.07"
"28.10000","2.34164","2510.43"
"28.20000","2.35010","2517.94"
"28.30000","2.35847","2526.05"
"28.40000","2.36674","2533.09"
"28.50000","2.37520","2541.28"
"28.60000","2.38337","2547.54"
"28.70000","2.39183","2554.91"
"28.80000","2.40030","2562.79"
"28.90000","2.40846","2570.3"
"29.00000","2.41703","2577.39"
"29.10000","2.42560","2586.27"
"29.20000","2.43376","2592.97"
"29.30000","2.44152","2599.34"
"29.40000","2.44989","2606.75"
"29.50000","2.45856","2614.72"
"29.60000","2.46713","2621.68"
"29.70000","2.47529","2628.96"
"29.80000","2.48345","2636.22"
"29.90000","2.49182","2645.1"
"30.00000","2.49998","2651.81"
"30.10000","2.50825","2658.67"
"30.20000","2.51692","2667.01"
"30.30000","2.52549","2674.32"
"30.40000","2.53345","2681.51"
"30.50000","2.54151","2689.03"
"30.60000","2.54988","2696.48"
"30.70000","2.55814","2704.04"
"30.80000","2.56651","2712.19"
"30.90000","2.57508","2719.05"
"31.00000","2.58344","2727.17"
"31.10000","2.59171","2734.97"
"31.20000","2.60007","2743.31"
"31.30000","2.60814","2749.14"
"31.40000","2.61660","2757.55"
"31.50000","2.62507","2765.66"
"31.60000","2.63354","2773.83"
"31.70000","2.64210","2781.6"
"31.80000","2.65037","2789.19"
"31.90000","2.65853","2794.98"
"32.00000","2.66650","2802.63"
"32.10000","2.67476","2809.42"
"32.20000","2.68343","2818.05"
"32.30000","2.69210","2826.01"
"32.40000","2.70056","2834.12"
"32.50000","2.70863","2840.92"
"32.60000","2.71669","2848.08"
"32.70000","2.72496","2855.85"
"32.80000","2.73332","2863.72"
"32.90000","2.74179","2870.65"
"33.00000","2.75026","2877.66"
"33.10000","2.75862","2885.48"
"33.20000","2.76699","2892.68"
"33.30000","2.77505","2900.01"
"33.40000","2.78301","2906.36"
"33.50000","2.79168","2913.85"
"33.60000","2.80005","2921.73"
"33.70000","2.80811","2928.77"
"33.80000","2.81648","2935.77"
"33.90000","2.82515","2943.69"
"34.00000","2.83341","2950.43"
"34.10000","2.84137","2956.96"
"34.20000","2.84974","2964.77"
"34.30000","2.85861","2972.14"
"34.40000","2.86707","2981.85"
"34.50000","2.87524","2987.26"
"34.60000","2.88381","2993.95"
"34.70000","2.89177","3002.15"
"34.80000","2.89983","3009.35"
"34.90000","2.90830","3016.8"
"35.00000","2.91707","3024.7"
"35.10000","2.92543","3032.12"
"35.20000","2.93350","3039.13"
"35.30000","2.94176","3045.88"
"35.40000","2.95013","3054.04"
"35.50000","2.95839","3061.38"
"35.60000","2.96676","3068.4"
"35.70000","2.97533","3076.94"
"35.80000","2.98369","3084.48"
"35.90000","2.99196","3091.33"
"36.00000","2.99992","3098.2"
"36.10000","3.00829","3104.39"
"36.20000","3.01655","3112.67"
"36.30000","3.02482","3119.84"
"36.40000","3.03328","3126.49"
"36.50000","3.04195","3135.27"
"36.60000","3.05022","3140.93"
"36.70000","3.05838","3147.77"
"36.80000","3.06644","3154.6"
"36.90000","3.07481","3161.28"
"37.00000","3.08358","3169.19"
"37.10000","3.09215","3177.18"
"37.20000","3.10041","3184.12"
"37.30000","3.10848","3190.67"
"37.40000","3.11644","3198.09"
"37.50000","3.12480","3205.47"
"37.60000","3.13327","3212.19"
"37.70000","3.14184","3219.75"
"37.80000","3.15031","3227.9"
"37.90000","3.15877","3234.7"
"38.00000","3.16714","3240.97"
"38.10000","3.17500","3248.83"
"38.20000","3.18326","3254.72"
"38.30000","3.19163","3262.22"
"38.40000","3.19979","3269.58"
"38.50000","3.20846","3276.46"
"38.60000","3.21713","3284.26"
"38.70000","3.22540","3291.29"
"38.80000","3.23326","3297.73"
"38.90000","3.24132","3305.31"
"39.00000","3.24999","3313.18"
"39.10000","3.25856","3321.93"
"39.20000","3.26692","3327.76"
"39.30000","3.27529","3334.68"
"39.40000","3.28355","3342.05"
"39.50000","3.29152","3347.76"
"39.60000","3.29978","3354.93"
"39.70000","3.30855","3362.24"
"39.80000","3.31722","3369.18"
"39.90000","3.32538","3376.73"
"40.00000","3.33345","3381.96"
"40.10000","3.34181","3390.02"
"40.20000","3.35008","3396.37"
"40.30000","3.35834","3404"
"40.40000","3.36691","3411.33"
"40.50000","3.37528","3417.59"
"40.60000","3.38374","3424.23"
"40.70000","3.39201","3430.76"
"40.80000","3.39987","3437.22"
"40.90000","3.40824","3445.41"
"41.00000","3.41680","3452.84"
"41.10000","3.42537","3459.56"
"41.20000","3.43384","3467.19"
"41.30000","3.44210","3473.08"
"41.40000","3.45017","3479.79"
"41.50000","3.45823","3486.85"
"41.60000","3.46629","3493.43"
"41.70000","3.47486","3501.3"
"41.80000","3.48363","3508.31"
"41.90000","3.49220","3515.21"
"42.00000","3.50036","3522.1"
"42.10000","3.50832","3528.88"
"42.20000","3.51659","3535.39"
"42.30000","3.52495","3542.55"
"42.40000","3.53342","3549.14"
"42.50000","3.54189","3557.28"
"42.60000","3.55025","3563.26"
"42.70000","3.55862","3570.69"
"42.80000","3.56689","3577.43"
"42.90000","3.57485","3583.26"
"43.00000","3.58321","3590.34"
"43.10000","3.59168","3595.92"
"43.20000","3.60005","3602.33"
"43.30000","3.60851","3610.67"
"43.40000","3.61718","3617.1"
"43.50000","3.62535","3622.56"
"43.60000","3.63331","3628.81"
"43.70000","3.64157","3634.57"
"43.80000","3.65014","3641.8"
"43.90000","3.65861","3648.99"
"44.00000","3.66687","3655.16"
"44.10000","3.67504","3661.35"
"44.20000","3.68340","3667.81"
"44.30000","3.69147","3673.5"
"44.40000","3.69983","3679.82"
"44.50000","3.70860","3686.56"
"44.60000","3.71707","3693.87"
"44.70000","3.72503","3699.83"
"44.80000","3.73309","3706.52"
"44.90000","3.74156","3712.99"
"45.00000","3.75003","3718.65"
"45.10000","3.75839","3724.93"
"45.20000","3.76706","3731.93"
"45.30000","3.77543","3737.86"
"45.40000","3.78359","3744.93"
"45.50000","3.79176","3751.15"
"45.60000","3.79992","3755.96"
"45.70000","3.80839","3763.25"
"45.80000","3.81665","3769.68"
"45.90000","3.82512","3776"
"46.00000","3.83359","3782.63"
"46.10000","3.84205","3788.25"
"46.20000","3.85022","3794.26"
"46.30000","3.85828","3800.11"
"46.40000","3.86654","3806.12"
"46.50000","3.87501","3812.35"
"46.60000","3.88378","3819.77"
"46.70000","3.89215","3826.08"
"46.80000","3.90021","3831.22"
"46.90000","3.90827","3836.71"
"47.00000","3.91644","3841.44"
"47.10000","3.92480","3847.44"
"47.20000","3.93347","3853.22"
"47.30000","3.94204","3860.14"
"47.40000","3.95020","3865.03"
"47.50000","3.95857","3871.25"
"47.60000","3.96663","3876.44"
"47.70000","3.97480","3881.42"
"47.80000","3.98336","3887.38"
"47.90000","3.99163","3894.03"
"48.00000","4.00010","3899.52"
"48.10000","4.00876","3904.86"
"48.20000","4.01733","3910.02"
"48.30000","4.02529","3916.44"
"48.40000","4.03316","3920.47"
"48.50000","4.04152","3925.76"
"48.60000","4.05029","3931.72"
"48.70000","4.05866","3938.09"
"48.80000","4.06712","3943"
"48.90000","4.07539","3949.06"
"49.00000","4.08345","3953.86"
"49.10000","4.09152","3958.97"
"49.20000","4.09978","3963.59"
"49.30000","4.10845","3968.96"
"49.40000","4.11692","3974.82"
"49.50000","4.12498","3979.28"
"49.60000","4.13324","3983.9"
"49.70000","4.14151","3988.88"
"49.80000","4.14988","3993.26"
"49.90000","4.15824","3998.4"
"50.00000","4.16681","4004.22"
"50.10000","4.17528","4008.3"
"50.20000","4.18374","4013.65"
"50.30000","4.19170","4017.1"
"50.40000","4.19977","4021.03"
"50.50000","4.20813","4026.25"
"50.60000","4.21670","4030.02"
"50.70000","4.22537","4035.52"
"50.80000","4.23384","4039.49"
"50.90000","4.24220","4043.24"
"51.00000","4.25006","4047.09"
"51.10000","4.25793","4050.15"
"51.20000","4.26649","4054.65"
"51.30000","4.27516","4058.87"
"51.40000","4.28383","4062.72"
"51.50000","4.29220","4066.67"
"51.60000","4.30026","4070.14"
"51.70000","4.30822","4072.26"
"51.80000","4.31659","4076.1"
"51.90000","4.32485","4078.87"
"52.00000","4.33352","4081.97"
"52.10000","4.34209","4084.48"
"52.20000","4.35045","4087.52"
"52.30000","4.35862","4089.57"
"52.40000","4.36648","4091.12"
"52.50000","4.37475","4093"
"52.60000","4.38341","4094.58"
"52.70000","4.39178","4097.59"
"52.80000","4.40015","4097.82"
"52.90000","4.40871","4100.34"
"53.00000","4.41708","4099.97"
"53.10000","4.42484","4100.65"
"53.20000","4.43300","4101.07"
"53.30000","4.44167","4101.07"
"53.40000","4.45034","4102.21"
"53.50000","4.45851","4101.17"
"53.60000","4.46697","4100.72"
"53.70000","4.47524","4100.56"
"53.80000","4.48310","4098.19"
"53.90000","4.49147","4096.86"
"54.00000","4.50023","4095.74"
"54.10000","4.50890","4094.53"
"54.20000","4.51697","4091.56"
"54.30000","4.52523","4087.72"
"54.40000","4.53350","4084.34"
"54.50000","4.54176","4080.68"
"54.60000","4.55023","4078"
"54.70000","4.55879","4073.79"
"54.80000","4.56726","4068.82"
"54.90000","4.57553","4064.61"
"55.00000","4.58359","4058.93"
"55.10000","4.59155","4052.1"
"55.20000","4.59972","4046.73"
"55.30000","4.60818","4040.26"
"55.40000","4.61685","4035.17"
"55.50000","4.62532","4028.83"
"55.60000","4.63358","4022.27"
"55.70000","4.64185","4015.49"
"55.80000","4.64981","4008"
"55.90000","4.65798","4000.21"
"56.00000","4.66644","3991.36"
"56.10000","4.67511","3984.71"
"56.20000","4.68368","3977.88"
"56.30000","4.69184","3968.82"
"56.40000","4.70001","3961.25"
"56.50000","4.70817","3952.59"
"56.60000","4.71654","3942.97"
"56.70000","4.72510","3935.01"
"56.80000","4.73377","3925.46"
"56.90000","4.74204","3916.03"
"57.00000","4.75030","3906.72"
"57.10000","4.75857","3896.37"
"57.20000","4.76673","3885.24"
"57.30000","4.77510","3873.9"
"57.40000","4.78357","3863.3"
"57.50000","4.79193","3850.63"
"57.60000","4.80040","3839.17"
"57.70000","4.80886","3824.79"
"57.80000","4.81703","3810.69"
"57.90000","4.82499","3794.39"
"58.00000","4.83326","3777.92"
"58.10000","4.84192","3759.41"
"58.20000","4.85019","3737.74"
"58.30000","4.85856","3712.58"
"58.40000","4.86702","3682.48"
"58.50000","4.87519","3641.65"
"58.60000","4.88325","3578.44"
"58.67600","4.88950","3269.2"
"58.68000","4.88990","2957.69"
"58.68400","4.89031","2591.58"
"58.68800","4.89071","2190.36"
"58.69000","4.89091","1991.24"