File: Data_Processing/Tensile-Data/Sequence_11.csv
General : Start date,"10/22/2024 9:41 AM"
General : End date,"10/22/2024 9:42 AM"
Specimen notes : Specimen note 1,"red, 200, batch 3, seq 11"
Test : Rate 1,"5.00000",mm/min

Time,Extension,Load
(s),(mm),(N)
"0.00000","0.00000","0.31678"
"0.10000","0.00141","0.47348"
"0.20000","0.01008","11.61442"
"0.30000","0.02348","39.00488"
"0.40000","0.03286","57.71466"
"0.50000","0.04062","72.74032"
"0.60000","0.04949","88.88014"
"0.70000","0.05796","102.911"
"0.80000","0.06683","118.946"
"0.90000","0.07560","135.333"
"1.00000","0.08396","140.974"
"1.10000","0.09192","155.492"
"1.20000","0.10019","169.517"
"1.30000","0.10845","183.782"
"1.40000","0.11702","198.131"
"1.50000","0.12559","214.235"
"1.60000","0.13385","228.658"
"1.70000","0.14212","243.209"
"1.80000","0.15008","257.839"
"1.90000","0.15825","271.485"
"2.00000","0.16681","286.676"
"2.10000","0.17538","303.144"
"2.20000","0.18395","317.571"
"2.30000","0.19211","331.168"
"2.40000","0.20018","345.22"
"2.50000","0.20834","360.382"
"2.60000","0.21681","375.796"
"2.70000","0.22517","389.792"
"2.80000","0.23364","405.825"
"2.90000","0.24211","420.179"
"3.00000","0.25037","434.957"
"3.10000","0.25854","449.068"
"3.20000","0.26660","463.745"
"3.30000","0.27507","478.338"
"3.40000","0.28353","492.717"
"3.50000","0.29200","507.583"
"3.60000","0.30067","522.287"
"3.70000","0.30893","537.056"
"3.80000","0.31679","551.705"
"3.90000","0.32486","565.476"
"4.00000","0.33343","579.432"
"4.10000","0.34199","594.504"
"4.20000","0.35016","609.019"
"4.30000","0.35862","622.783"
"4.40000","0.36719","638.628"
"4.50000","0.37505","652.401"
"4.60000","0.38312","666.882"
"4.70000","0.39158","681.059"
"4.80000","0.40025","696.554"
"4.90000","0.40872","711.072"
"5.00000","0.41698","724.641"
"5.10000","0.42525","738.853"
"5.20000","0.43341","752.585"
"5.30000","0.44158","767.24"
"5.40000","0.45025","782.476"
"5.50000","0.45891","796.24"
"5.60000","0.46728","811.143"
"5.70000","0.47514","823.094"
"5.80000","0.48351","838.271"
"5.90000","0.49177","851.17"
"6.00000","0.50004","866.128"
"6.10000","0.50840","879.029"
"6.20000","0.51707","894.423"
"6.30000","0.52544","909.019"
"6.40000","0.53380","923.344"
"6.50000","0.54197","936.745"
"6.60000","0.55013","949.882"
"6.70000","0.55840","963.79"
"6.80000","0.56686","978.232"
"6.90000","0.57533","992.566"
"7.00000","0.58390","1006.95"
"7.10000","0.59216","1020.52"
"7.20000","0.60013","1034.2"
"7.30000","0.60839","1047"
"7.40000","0.61666","1061.33"
"7.50000","0.62522","1075.16"
"7.60000","0.63369","1088.57"
"7.70000","0.64206","1102.69"
"7.80000","0.65012","1115.99"
"7.90000","0.65808","1129.36"
"8.00000","0.66635","1142.53"
"8.10000","0.67512","1157.09"
"8.20000","0.68378","1171.42"
"8.30000","0.69205","1184.71"
"8.40000","0.70042","1199.45"
"8.50000","0.70868","1212.72"
"8.60000","0.71695","1226.37"
"8.70000","0.72511","1239.45"
"8.80000","0.73368","1253.72"
"8.90000","0.74194","1267.39"
"9.00000","0.75031","1280.3"
"9.10000","0.75888","1295.15"
"9.20000","0.76714","1307.74"
"9.30000","0.77500","1319.95"
"9.40000","0.78327","1332.72"
"9.50000","0.79183","1347.27"
"9.60000","0.80050","1361.36"
"9.70000","0.80877","1374.44"
"9.80000","0.81703","1387.87"
"9.90000","0.82540","1401.72"
"10.00000","0.83336","1414.32"
"10.10000","0.84153","1427.28"
"10.20000","0.85009","1440.3"
"10.30000","0.85876","1454.46"
"10.40000","0.86703","1467.81"
"10.50000","0.87519","1480.81"
"10.60000","0.88366","1494.34"
"10.70000","0.89182","1507.37"
"10.80000","0.90019","1519.34"
"10.90000","0.90876","1533.45"
"11.00000","0.91712","1546.51"
"11.10000","0.92539","1559.87"
"11.20000","0.93335","1572.78"
"11.30000","0.94151","1584.81"
"11.40000","0.94988","1597.78"
"11.50000","0.95825","1610.44"
"11.60000","0.96681","1623.74"
"11.70000","0.97548","1637.65"
"11.80000","0.98385","1650.85"
"11.90000","0.99201","1662.83"
"12.00000","0.99997","1675.53"
"12.10000","1.00824","1688.01"
"12.20000","1.01671","1700.9"
"12.30000","1.02537","1714.84"
"12.40000","1.03384","1727.5"
"12.50000","1.04231","1740.89"
"12.60000","1.05027","1753.18"
"12.70000","1.05833","1764.79"
"12.80000","1.06660","1776.28"
"12.90000","1.07506","1789.8"
"13.00000","1.08353","1802.66"
"13.10000","1.09210","1814.94"
"13.20000","1.10057","1827.9"
"13.30000","1.10853","1840.24"
"13.40000","1.11649","1851.35"
"13.50000","1.12496","1864.24"
"13.60000","1.13353","1877.17"
"13.70000","1.14179","1890.96"
"13.80000","1.15006","1902.69"
"13.90000","1.15882","1915.85"
"14.00000","1.16719","1928.5"
"14.10000","1.17495","1940.42"
"14.20000","1.18322","1952.76"
"14.30000","1.19188","1965.23"
"14.40000","1.20035","1978.6"
"14.50000","1.20862","1989.95"
"14.60000","1.21718","2002.73"
"14.70000","1.22525","2014.2"
"14.80000","1.23321","2027.2"
"14.90000","1.24168","2039.74"
"15.00000","1.25034","2053.04"
"15.10000","1.25891","2065.51"
"15.20000","1.26708","2075.67"
"15.30000","1.27514","2088.25"
"15.40000","1.28351","2099.39"
"15.50000","1.29167","2112.36"
"15.60000","1.30004","2124.76"
"15.70000","1.30870","2136.78"
"15.80000","1.31717","2148.66"
"15.90000","1.32544","2160.47"
"16.00000","1.33350","2172.3"
"16.10000","1.34176","2183.48"
"16.20000","1.34993","2194.95"
"16.30000","1.35819","2206.24"
"16.40000","1.36666","2218.88"
"16.50000","1.37533","2230.54"
"16.60000","1.38390","2243.9"
"16.70000","1.39206","2255.62"
"16.80000","1.39992","2267.42"
"16.90000","1.40819","2278.34"
"17.00000","1.41706","2290.92"
"17.10000","1.42563","2303.13"
"17.20000","1.43389","2314.95"
"17.30000","1.44216","2326.39"
"17.40000","1.45012","2338.57"
"17.50000","1.45838","2350.04"
"17.60000","1.46675","2360.73"
"17.70000","1.47522","2372.77"
"17.80000","1.48368","2384.81"
"17.90000","1.49205","2395.36"
"18.00000","1.50031","2407.19"
"18.10000","1.50838","2417.52"
"18.20000","1.51654","2429.91"
"18.30000","1.52511","2442.79"
"18.40000","1.53347","2454.43"
"18.50000","1.54174","2465.21"
"18.60000","1.55051","2476.93"
"18.70000","1.55898","2489.12"
"18.80000","1.56684","2499.85"
"18.90000","1.57490","2510.49"
"19.00000","1.58347","2522.98"
"19.10000","1.59224","2535.13"
"19.20000","1.60050","2546.01"
"19.30000","1.60867","2556.81"
"19.40000","1.61713","2567.61"
"19.50000","1.62530","2579.71"
"19.60000","1.63336","2590.48"
"19.70000","1.64183","2601.26"
"19.80000","1.65060","2612.32"
"19.90000","1.65886","2624.56"
"20.00000","1.66693","2635.46"
"20.10000","1.67509","2646.75"
"20.20000","1.68335","2657.43"
"20.30000","1.69172","2668.81"
"20.40000","1.70019","2678.97"
"20.50000","1.70875","2690.29"
"20.60000","1.71702","2701.39"
"20.70000","1.72528","2713.16"
"20.80000","1.73345","2723.15"
"20.90000","1.74161","2734.03"
"21.00000","1.74998","2745.22"
"21.10000","1.75855","2756.32"
"21.20000","1.76711","2767.54"
"21.30000","1.77538","2778.81"
"21.40000","1.78364","2789.28"
"21.50000","1.79181","2801.38"
"21.60000","1.79987","2810.92"
"21.70000","1.80824","2821.45"
"21.80000","1.81691","2832.93"
"21.90000","1.82557","2844.46"
"22.00000","1.83404","2855.16"
"22.10000","1.84210","2866.32"
"22.20000","1.85007","2876.89"
"22.30000","1.85843","2886.2"
"22.40000","1.86680","2897.38"
"22.50000","1.87527","2908.94"
"22.60000","1.88373","2921.01"
"22.70000","1.89220","2931.21"
"22.80000","1.90046","2942.25"
"22.90000","1.90843","2951.91"
"23.00000","1.91679","2961.1"
"23.10000","1.92526","2972.26"
"23.20000","1.93363","2983.04"
"23.30000","1.94189","2994.04"
"23.40000","1.95046","3005.16"
"23.50000","1.95872","3013.74"
"23.60000","1.96679","3023.03"
"23.70000","1.97485","3034.39"
"23.80000","1.98352","3044.6"
"23.90000","1.99198","3054.58"
"24.00000","2.00025","3064.86"
"24.10000","2.00851","3075.6"
"24.20000","2.01688","3084.92"
"24.30000","2.02504","3096.33"
"24.40000","2.03311","3105.8"
"24.50000","2.04178","3115.87"
"24.60000","2.05044","3126.66"
"24.70000","2.05851","3136.52"
"24.80000","2.06677","3146.85"
"24.90000","2.07514","3157.08"
"25.00000","2.08361","3166.55"
"25.10000","2.09187","3177.4"
"25.20000","2.10034","3187.31"
"25.30000","2.10891","3197.65"
"25.40000","2.11717","3206.12"
"25.50000","2.12523","3216.45"
"25.60000","2.13350","3225.83"
"25.70000","2.14186","3235.3"
"25.80000","2.15003","3244.76"
"25.90000","2.15860","3255.84"
"26.00000","2.16706","3265.4"
"26.10000","2.17553","3275.51"
"26.20000","2.18379","3285.3"
"26.30000","2.19176","3293.73"
"26.40000","2.19982","3302.96"
"26.50000","2.20829","3313.41"
"26.60000","2.21696","3323.69"
"26.70000","2.22532","3332.42"
"26.80000","2.23369","3342.58"
"26.90000","2.24175","3352.11"
"27.00000","2.24992","3361.53"
"27.10000","2.25818","3371.27"
"27.20000","2.26685","3380.15"
"27.30000","2.27532","3389.72"
"27.40000","2.28368","3400.07"
"27.50000","2.29215","3409.84"
"27.60000","2.30031","3418.93"
"27.70000","2.30817","3427.59"
"27.80000","2.31664","3436.85"
"27.90000","2.32511","3445.69"
"28.00000","2.33357","3455.25"
"28.10000","2.34214","3464.36"
"28.20000","2.35061","3474.14"
"28.30000","2.35877","3482.59"
"28.40000","2.36653","3490.41"
"28.50000","2.37500","3500.9"
"28.60000","2.38377","3509.78"
"28.70000","2.39214","3519.02"
"28.80000","2.40050","3527.63"
"28.90000","2.40877","3535.55"
"29.00000","2.41673","3545.68"
"29.10000","2.42489","3553.87"
"29.20000","2.43336","3562.54"
"29.30000","2.44213","3572.63"
"29.40000","2.45049","3581.28"
"29.50000","2.45856","3589.17"
"29.60000","2.46672","3597.14"
"29.70000","2.47509","3606.58"
"29.80000","2.48315","3614.36"
"29.90000","2.49152","3621.63"
"30.00000","2.50019","3631.48"
"30.10000","2.50865","3640.57"
"30.20000","2.51722","3649.54"
"30.30000","2.52528","3657.14"
"30.40000","2.53325","3665.03"
"30.50000","2.54161","3674.34"
"30.60000","2.55028","3682.37"
"30.70000","2.55905","3691.23"
"30.80000","2.56742","3699.87"
"30.90000","2.57558","3707.86"
"31.00000","2.58354","3715.96"
"31.10000","2.59161","3723.36"
"31.20000","2.59997","3731.63"
"31.30000","2.60864","3739.23"
"31.40000","2.61711","3746.85"
"31.50000","2.62547","3755.25"
"31.60000","2.63354","3763.25"
"31.70000","2.64180","3770.93"
"31.80000","2.65017","3778.21"
"31.90000","2.65843","3785.92"
"32.00000","2.66690","3677.2"
"32.10000","2.67547","3694.42"
"32.20000","2.68373","3704.47"
"32.30000","2.69200","3714.46"
"32.40000","2.70006","3723.09"
"32.50000","2.70822","3731.73"
"32.60000","2.71669","3741.67"
"32.70000","2.72536","3752.87"
"32.80000","2.73362","3762.29"
"32.90000","2.74209","3770.62"
"33.00000","2.75056","3779.63"
"33.10000","2.75832","3788.1"
"33.20000","2.76638","3795.68"
"33.30000","2.77505","3804.74"
"33.40000","2.78382","3813.62"
"33.50000","2.79198","3822.1"
"33.60000","2.80035","3789.23"
"33.70000","2.80851","3801.23"
"33.80000","2.81668","3810.94"
"33.90000","2.82504","3819.65"
"34.00000","2.83371","3827.98"
"34.10000","2.84228","3837.19"
"34.20000","2.85044","3845.59"
"34.30000","2.85851","3854.4"
"34.40000","2.86687","3862.95"
"34.50000","2.87524","3871.28"
"34.60000","2.88350","3879.81"
"34.70000","2.89187","3886.68"
"34.80000","2.90044","3895.53"
"34.90000","2.90890","3903.1"
"35.00000","2.91707","3911.88"
"35.10000","2.92503","3919.21"
"35.20000","2.93320","3925.94"
"35.30000","2.94146","3933.98"
"35.40000","2.95013","3941.83"
"35.50000","2.95890","3950.07"
"35.60000","2.96736","3957.81"
"35.70000","2.97553","3964.93"
"35.80000","2.98359","3971.44"
"35.90000","2.99166","3978.03"
"36.00000","3.00012","3985.54"
"36.10000","3.00889","3993.44"
"36.20000","3.01736","4001.29"
"36.30000","3.02552","4007.43"
"36.40000","3.03359","4014.02"
"36.50000","3.04165","4019.13"
"36.60000","3.04991","4025.56"
"36.70000","3.05828","4031.21"
"36.80000","3.06695","4038.63"
"36.90000","3.07531","4044.91"
"37.00000","3.08378","4051.41"
"37.10000","3.09205","4056.32"
"37.20000","3.10011","4061.41"
"37.30000","3.10838","4066.57"
"37.40000","3.11664","4071.34"
"37.50000","3.12501","4077.25"
"37.60000","3.13357","4082.14"
"37.70000","3.14224","4086.28"
"37.80000","3.15041","4091.32"
"37.90000","3.15817","4093.55"
"38.00000","3.16643","4096.69"
"38.10000","3.17510","4099.81"
"38.20000","3.18377","4102.58"
"38.30000","3.19203","4102.55"
"38.40000","3.20040","4103.12"
"38.50000","3.20866","4102.33"
"38.60000","3.21653","4100.21"
"38.70000","3.22489","4095.44"
"38.80000","3.23356","4088.65"
"38.90000","3.24223","4076.45"
"39.00000","3.25029","4052.27"
"39.10000","3.25846","3992.91"
"39.16400","3.26390","3620.41"
"39.16800","3.26430","3274.74"
"39.17200","3.26471","2858.79"
"39.17600","3.26521","2416.25"
"39.17800","3.26541","2195.5"