File: Data_Processing/Tensile-Data/Sequence_53.csv
General : Start date,"11/5/2024 8:40 AM"
General : End date,"11/5/2024 8:41 AM"
Specimen notes : Specimen note 1,"Day 3, red, 230, batch 16, seq 53"
Test : Rate 1,"5.00000",mm/min

Time,Extension,Load
(s),(mm),(N)
"0.00000","0.00000","-0.23173"
"0.10000","0.00272","0.78921"
"0.20000","0.00978","0.46561"
"0.30000","0.01341","3.10766"
"0.40000","0.02691","24.56135"
"0.50000","0.03901","51.70185"
"0.60000","0.04778","68.55077"
"0.70000","0.05725","85.95599"
"0.80000","0.06642","103.879"
"0.90000","0.07509","119.118"
"1.00000","0.08336","133.537"
"1.10000","0.09152","148.313"
"1.20000","0.09979","162.39"
"1.30000","0.10855","178.542"
"1.40000","0.11702","192.746"
"1.50000","0.12539","207.325"
"1.60000","0.13375","221.076"
"1.70000","0.14202","234.478"
"1.80000","0.15028","249.779"
"1.90000","0.15835","260.959"
"2.00000","0.16691","276.674"
"2.10000","0.17558","290.956"
"2.20000","0.18375","305.388"
"2.30000","0.19211","319.222"
"2.40000","0.20038","332.831"
"2.50000","0.20844","347.576"
"2.60000","0.21671","360.552"
"2.70000","0.22517","376.254"
"2.80000","0.23364","390.409"
"2.90000","0.24211","404.34"
"3.00000","0.25037","418.986"
"3.10000","0.25843","431.883"
"3.20000","0.26670","445.4"
"3.30000","0.27486","459.537"
"3.40000","0.28363","473.886"
"3.50000","0.29220","487.986"
"3.60000","0.30047","500.839"
"3.70000","0.30843","514.298"
"3.80000","0.31649","528.752"
"3.90000","0.32496","541.566"
"4.00000","0.33353","556.111"
"4.10000","0.34189","568.599"
"4.20000","0.35026","583.479"
"4.30000","0.35842","596.519"
"4.40000","0.36689","610.587"
"4.50000","0.37505","624.403"
"4.60000","0.38332","636.658"
"4.70000","0.39199","651.08"
"4.80000","0.40055","664.273"
"4.90000","0.40892","676.606"
"5.00000","0.41718","690.373"
"5.10000","0.42535","702.367"
"5.20000","0.43341","714.373"
"5.30000","0.44188","727.626"
"5.40000","0.45045","739.296"
"5.50000","0.45871","753.483"
"5.60000","0.46708","765.498"
"5.70000","0.47565","777.564"
"5.80000","0.48351","790.977"
"5.90000","0.49147","802.979"
"6.00000","0.49994","813.944"
"6.10000","0.50860","827.236"
"6.20000","0.51717","839.7"
"6.30000","0.52544","852.129"
"6.40000","0.53360","862.857"
"6.50000","0.54156","874.74"
"6.60000","0.54973","885.874"
"6.70000","0.55850","898.305"
"6.80000","0.56717","910.861"
"6.90000","0.57543","922.124"
"7.00000","0.58319","932.83"
"7.10000","0.59176","944.775"
"7.20000","0.60033","956.645"
"7.30000","0.60849","967.741"
"7.40000","0.61676","978.715"
"7.50000","0.62532","990.944"
"7.60000","0.63399","1002.01"
"7.70000","0.64216","1013.38"
"7.80000","0.65032","1025.03"
"7.90000","0.65838","1035.79"
"8.00000","0.66665","1046.39"
"8.10000","0.67501","1058.28"
"8.20000","0.68358","1069.7"
"8.30000","0.69225","1080.22"
"8.40000","0.70042","1090.99"
"8.50000","0.70828","1101.1"
"8.60000","0.71644","1111"
"8.70000","0.72491","1122.08"
"8.80000","0.73358","1132.5"
"8.90000","0.74194","1143.31"
"9.00000","0.75021","1154.22"
"9.10000","0.75827","1164.62"
"9.20000","0.76643","1175.12"
"9.30000","0.77470","1184.91"
"9.40000","0.78347","1195.41"
"9.50000","0.79204","1207.27"
"9.60000","0.80040","1216.89"
"9.70000","0.80867","1227.42"
"9.80000","0.81703","1238.31"
"9.90000","0.82520","1247.99"
"10.00000","0.83336","1257.03"
"10.10000","0.84183","1266.37"
"10.20000","0.85019","1276.91"
"10.30000","0.85866","1286.12"
"10.40000","0.86713","1296.72"
"10.50000","0.87549","1305.47"
"10.60000","0.88336","1314.14"
"10.70000","0.89162","1324.64"
"10.80000","0.90009","1333.1"
"10.90000","0.90855","1343.22"
"11.00000","0.91682","1352.48"
"11.10000","0.92529","1362.96"
"11.20000","0.93355","1372.32"
"11.30000","0.94161","1381.19"
"11.40000","0.94998","1390.1"
"11.50000","0.95855","1401.2"
"11.60000","0.96691","1410.86"
"11.70000","0.97508","1421.03"
"11.80000","0.98334","1430.17"
"11.90000","0.99191","1440.96"
"12.00000","1.00018","1449.16"
"12.10000","1.00824","1459.51"
"12.20000","1.01681","1469.19"
"12.30000","1.02537","1478.2"
"12.40000","1.03354","1487.57"
"12.50000","1.04200","1497.09"
"12.60000","1.05027","1506.73"
"12.70000","1.05833","1515.65"
"12.80000","1.06640","1523.89"
"12.90000","1.07476","1534.74"
"13.00000","1.08373","1544.2"
"13.10000","1.09230","1553.63"
"13.20000","1.10026","1561.74"
"13.30000","1.10853","1570.94"
"13.40000","1.11699","1579.33"
"13.50000","1.12526","1589.04"
"13.60000","1.13373","1597.15"
"13.70000","1.14219","1606.33"
"13.80000","1.15066","1616.13"
"13.90000","1.15862","1624.55"
"14.00000","1.16659","1632.3"
"14.10000","1.17505","1641.79"
"14.20000","1.18352","1650.57"
"14.30000","1.19188","1660.46"
"14.40000","1.20045","1670.08"
"14.50000","1.20882","1678.37"
"14.60000","1.21708","1686.6"
"14.70000","1.22495","1696.36"
"14.80000","1.23321","1705.02"
"14.90000","1.24168","1714.85"
"15.00000","1.25014","1723.98"
"15.10000","1.25861","1734.02"
"15.20000","1.26708","1742.54"
"15.30000","1.27524","1750.92"
"15.40000","1.28310","1760.01"
"15.50000","1.29147","1769.75"
"15.60000","1.30024","1778.06"
"15.70000","1.30881","1788.54"
"15.80000","1.31707","1797.22"
"15.90000","1.32544","1805.44"
"16.00000","1.33370","1814.25"
"16.10000","1.34166","1823.58"
"16.20000","1.35003","1832.15"
"16.30000","1.35870","1842.31"
"16.40000","1.36706","1851.79"
"16.50000","1.37533","1859.85"
"16.60000","1.38380","1868.99"
"16.70000","1.39196","1877.5"
"16.80000","1.40002","1886.21"
"16.90000","1.40829","1895.25"
"17.00000","1.41696","1904.15"
"17.10000","1.42532","1912.43"
"17.20000","1.43369","1922.26"
"17.30000","1.44195","1929.04"
"17.40000","1.45012","1938.8"
"17.50000","1.45818","1947.99"
"17.60000","1.46665","1956.64"
"17.70000","1.47522","1966.39"
"17.80000","1.48388","1975.39"
"17.90000","1.49215","1983.94"
"18.00000","1.50011","1992.35"
"18.10000","1.50828","2001.61"
"18.20000","1.51664","2009.77"
"18.30000","1.52521","2019.52"
"18.40000","1.53378","2027.43"
"18.50000","1.54204","2037.1"
"18.60000","1.55041","2046.09"
"18.70000","1.55847","2055.06"
"18.80000","1.56664","2062.79"
"18.90000","1.57520","2072.92"
"19.00000","1.58367","2081.28"
"19.10000","1.59214","2089.59"
"19.20000","1.60050","2099.09"
"19.30000","1.60867","2106.66"
"19.40000","1.61673","2115.41"
"19.50000","1.62479","2124.01"
"19.60000","1.63316","2131.8"
"19.70000","1.64163","2140.94"
"19.80000","1.65019","2149.81"
"19.90000","1.65866","2158.45"
"20.00000","1.66682","2166.88"
"20.10000","1.67489","2176.22"
"20.20000","1.68305","2183.56"
"20.30000","1.69172","2193.14"
"20.40000","1.70039","2202.93"
"20.50000","1.70875","2211.37"
"20.60000","1.71702","2219"
"20.70000","1.72528","2228.78"
"20.80000","1.73345","2236.63"
"20.90000","1.74161","2246.8"
"21.00000","1.75008","2254.26"
"21.10000","1.75875","2264.13"
"21.20000","1.76691","2274.22"
"21.30000","1.77518","2281.54"
"21.40000","1.78374","2290.25"
"21.50000","1.79181","2299.53"
"21.60000","1.79997","2307.44"
"21.70000","1.80824","2316.23"
"21.80000","1.81691","2325.94"
"21.90000","1.82537","2334.03"
"22.00000","1.83344","2341.95"
"22.10000","1.84170","2351.8"
"22.20000","1.85017","2359.88"
"22.30000","1.85853","2368.37"
"22.40000","1.86690","2378.68"
"22.50000","1.87547","2386.83"
"22.60000","1.88403","2396.57"
"22.70000","1.89200","2404.47"
"22.80000","1.89996","2412.98"
"22.90000","1.90833","2421.69"
"23.00000","1.91679","2429.99"
"23.10000","1.92526","2439.15"
"23.20000","1.93363","2448.25"
"23.30000","1.94199","2455.96"
"23.40000","1.95026","2466.15"
"23.50000","1.95832","2474.02"
"23.60000","1.96658","2481.85"
"23.70000","1.97515","2491.64"
"23.80000","1.98352","2499.85"
"23.90000","1.99188","2509.56"
"24.00000","2.00045","2518.59"
"24.10000","2.00872","2527.47"
"24.20000","2.01668","2535.79"
"24.30000","2.02484","2543.85"
"24.40000","2.03341","2553.28"
"24.50000","2.04208","2560.85"
"24.60000","2.05044","2570.81"
"24.70000","2.05881","2579.01"
"24.80000","2.06708","2587.39"
"24.90000","2.07504","2596.56"
"25.00000","2.08320","2604.42"
"25.10000","2.09187","2614.46"
"25.20000","2.10034","2623.64"
"25.30000","2.10860","2632.21"
"25.40000","2.11687","2641"
"25.50000","2.12513","2649.53"
"25.60000","2.13330","2658.33"
"25.70000","2.14156","2666.96"
"25.80000","2.15023","2675.96"
"25.90000","2.15850","2685.69"
"26.00000","2.16676","2693.86"
"26.10000","2.17533","2702.98"
"26.20000","2.18369","2711.43"
"26.30000","2.19196","2720.84"
"26.40000","2.20002","2727.78"
"26.50000","2.20869","2736.87"
"26.60000","2.21726","2746.62"
"26.70000","2.22542","2754.06"
"26.80000","2.23379","2762.4"
"26.90000","2.24185","2771.19"
"27.00000","2.25002","2779.33"
"27.10000","2.25838","2788.44"
"27.20000","2.26695","2797.39"
"27.30000","2.27562","2805.3"
"27.40000","2.28388","2814.79"
"27.50000","2.29185","2821.91"
"27.60000","2.30001","2830.2"
"27.70000","2.30838","2839.89"
"27.80000","2.31674","2848.19"
"27.90000","2.32531","2856.45"
"28.00000","2.33368","2865.15"
"28.10000","2.34204","2874.02"
"28.20000","2.35010","2882.12"
"28.30000","2.35807","2890.11"
"28.40000","2.36653","2898.26"
"28.50000","2.37520","2908.14"
"28.60000","2.38347","2916.6"
"28.70000","2.39193","2924.69"
"28.80000","2.40050","2932.35"
"28.90000","2.40867","2941.56"
"29.00000","2.41673","2948.78"
"29.10000","2.42479","2957.71"
"29.20000","2.43346","2966.21"
"29.30000","2.44203","2974.77"
"29.40000","2.45049","2983.45"
"29.50000","2.45886","2991.41"
"29.60000","2.46692","2999.21"
"29.70000","2.47489","3007.2"
"29.80000","2.48335","3015.78"
"29.90000","2.49212","3024.75"
"30.00000","2.50069","3033.36"
"30.10000","2.50885","3041.51"
"30.20000","2.51702","3049"
"30.30000","2.52508","3057.47"
"30.40000","2.53315","3066.21"
"30.50000","2.54151","3073.1"
"30.60000","2.55028","3082.49"
"30.70000","2.55844","3090.68"
"30.80000","2.56671","3099.35"
"30.90000","2.57508","3107.47"
"31.00000","2.58334","3115.24"
"31.10000","2.59140","3124.22"
"31.20000","2.59977","3132.46"
"31.30000","2.60854","3140.35"
"31.40000","2.61701","3149.83"
"31.50000","2.62517","3156.38"
"31.60000","2.63354","3165.16"
"31.70000","2.64150","3173.27"
"31.80000","2.64986","3180.9"
"31.90000","2.65853","3189.8"
"32.00000","2.66730","3198.64"
"32.10000","2.67577","3207.06"
"32.20000","2.68373","3214.53"
"32.30000","2.69179","3223.09"
"32.40000","2.70006","3231.01"
"32.50000","2.70843","3238.33"
"32.60000","2.71679","3247.18"
"32.70000","2.72526","3254.94"
"32.80000","2.73372","3264.1"
"32.90000","2.74209","3272.24"
"33.00000","2.75015","3279.88"
"33.10000","2.75822","3288.32"
"33.20000","2.76668","3296.43"
"33.30000","2.77535","3305.1"
"33.40000","2.78392","3314.55"
"33.50000","2.79229","3321.48"
"33.60000","2.80055","3329.6"
"33.70000","2.80851","3338.1"
"33.80000","2.81648","3344.59"
"33.90000","2.82494","3353.11"
"34.00000","2.83361","3361.62"
"34.10000","2.84208","3370.04"
"34.20000","2.85034","3377.79"
"34.30000","2.85861","3384.98"
"34.40000","2.86657","3393.95"
"34.50000","2.87484","3401.11"
"34.60000","2.88350","3410.21"
"34.70000","2.89217","3418.12"
"34.80000","2.90034","3426.53"
"34.90000","2.90860","3435.17"
"35.00000","2.91697","3441.78"
"35.10000","2.92513","3450.13"
"35.20000","2.93340","3458.35"
"35.30000","2.94186","3466.02"
"35.40000","2.95033","3474.75"
"35.50000","2.95870","3482.9"
"35.60000","2.96706","3490.21"
"35.70000","2.97543","3498.55"
"35.80000","2.98359","3505.43"
"35.90000","2.99176","3513.54"
"36.00000","3.00012","3521.74"
"36.10000","3.00879","3529.61"
"36.20000","3.01716","3537.61"
"36.30000","3.02522","3545.81"
"36.40000","3.03338","3553.24"
"36.50000","3.04145","3559.85"
"36.60000","3.04981","3568.74"
"36.70000","3.05848","3577.07"
"36.80000","3.06715","3585.1"
"36.90000","3.07552","3593.75"
"37.00000","3.08368","3601.01"
"37.10000","3.09174","3608.72"
"37.20000","3.10011","3615.93"
"37.30000","3.10848","3622.74"
"37.40000","3.11704","3631.86"
"37.50000","3.12541","3638.8"
"37.60000","3.13367","3646.55"
"37.70000","3.14194","3655.31"
"37.80000","3.14990","3661.3"
"37.90000","3.15837","3669.8"
"38.00000","3.16684","3677.02"
"38.10000","3.17520","3685.97"
"38.20000","3.18377","3692.01"
"38.30000","3.19213","3700.76"
"38.40000","3.20040","3708.31"
"38.50000","3.20846","3715.56"
"38.60000","3.21653","3723.14"
"38.70000","3.22499","3730.54"
"38.80000","3.23356","3738.52"
"38.90000","3.24203","3746.79"
"39.00000","3.25039","3753.44"
"39.10000","3.25856","3761.16"
"39.20000","3.26652","3767.45"
"39.30000","3.27489","3775.2"
"39.40000","3.28365","3784.01"
"39.50000","3.29212","3789.86"
"39.60000","3.30049","3796.48"
"39.70000","3.30875","3804.81"
"39.80000","3.31692","3811.06"
"39.90000","3.32478","3816.84"
"40.00000","3.33335","3825.36"
"40.10000","3.34191","3832.8"
"40.20000","3.35038","3839.8"
"40.30000","3.35865","3846.94"
"40.40000","3.36711","3854.76"
"40.50000","3.37548","3860.94"
"40.60000","3.38354","3869.32"
"40.70000","3.39161","3875.26"
"40.80000","3.40017","3882.94"
"40.90000","3.40884","3890.58"
"41.00000","3.41701","3896.54"
"41.10000","3.42527","3903.29"
"41.20000","3.43343","3911.22"
"41.30000","3.44150","3916.4"
"41.40000","3.45007","3923.88"
"41.50000","3.45873","3930.86"
"41.60000","3.46740","3938.09"
"41.70000","3.47547","3944.24"
"41.80000","3.48333","3949.29"
"41.90000","3.49149","3956.37"
"42.00000","3.49986","3963.22"
"42.10000","3.50832","3969.73"
"42.20000","3.51689","3976.74"
"42.30000","3.52526","3982.47"
"42.40000","3.53372","3988.42"
"42.50000","3.54179","3995.26"
"42.60000","3.54975","4001.13"
"42.70000","3.55842","4007.56"
"42.80000","3.56699","4013.71"
"42.90000","3.57535","4019.97"
"43.00000","3.58392","4025.8"
"43.10000","3.59239","4031.5"
"43.20000","3.60035","4037.31"
"43.30000","3.60831","4042.25"
"43.40000","3.61668","4047.67"
"43.50000","3.62524","4053.04"
"43.60000","3.63371","4058.27"
"43.70000","3.64208","4064.3"
"43.80000","3.65034","4068.85"
"43.90000","3.65841","4074.55"
"44.00000","3.66657","4079.19"
"44.10000","3.67514","4084.29"
"44.20000","3.68381","4088.86"
"44.30000","3.69207","4093.85"
"44.40000","3.70044","4098.25"
"44.50000","3.70860","4102.16"
"44.60000","3.71677","4105.65"
"44.70000","3.72493","4109.1"
"44.80000","3.73340","4111.93"
"44.90000","3.74196","4114.81"
"45.00000","3.75013","4118.08"
"45.10000","3.75849","4120.8"
"45.20000","3.76696","4123.64"
"45.30000","3.77523","4125.41"
"45.40000","3.78329","4127.18"
"45.50000","3.79176","4127.76"
"45.60000","3.80052","4128.61"
"45.70000","3.80899","4129.74"
"45.80000","3.81706","4128.74"
"45.90000","3.82502","4128.21"
"46.00000","3.83328","4125.42"
"46.10000","3.84155","4124.14"
"46.20000","3.85012","4120.19"
"46.30000","3.85899","4117.07"
"46.40000","3.86735","4112.09"
"46.50000","3.87541","4102.69"
"46.60000","3.88338","4093.68"
"46.70000","3.89174","4080.21"
"46.80000","3.90021","4060.97"
"46.90000","3.90868","4034.17"
"47.00000","3.91704","3985.23"
"47.07400","3.92329","3616.2"
"47.07800","3.92359","3258.51"
"47.08200","3.92400","2838.98"
"47.08600","3.92440","2388"