File: Data_Processing/Tensile-Data/Sequence_3.csv
General : Start date,"10/22/2024 9:13 AM"
General : End date,"10/22/2024 9:14 AM"
Specimen notes : Specimen note 1,"black, 200, batch 4, seq 3"
Test : Rate 1,"5.00000",mm/min

Time,Extension,Load
(s),(mm),(N)
"0.00000","-0.06431","-2.19952"
"0.10000","-0.06300","-2.31313"
"0.20000","-0.05342","9.43504"
"0.30000","-0.04022","36.48388"
"0.40000","-0.03135","54.39290"
"0.50000","-0.02308","69.23364"
"0.60000","-0.01441","84.87593"
"0.70000","-0.00615","100.361"
"0.80000","0.00212","114.989"
"0.90000","0.01078","128.959"
"1.00000","0.01945","143.818"
"1.10000","0.02772","157.669"
"1.20000","0.03588","170.948"
"1.30000","0.04435","185.15"
"1.40000","0.05251","198.763"
"1.50000","0.06078","212.203"
"1.60000","0.06925","227.13"
"1.70000","0.07801","241.902"
"1.80000","0.08638","256.936"
"1.90000","0.09454","270.835"
"2.00000","0.10271","285.577"
"2.10000","0.11087","298.231"
"2.20000","0.11924","313.029"
"2.30000","0.12750","327.479"
"2.40000","0.13607","341.357"
"2.50000","0.14454","356.414"
"2.60000","0.15290","370.173"
"2.70000","0.16087","383.511"
"2.80000","0.16893","397.825"
"2.90000","0.17730","411.928"
"3.00000","0.18586","426.617"
"3.10000","0.19453","440.751"
"3.20000","0.20270","455.197"
"3.30000","0.21056","468.375"
"3.40000","0.21882","482.743"
"3.50000","0.22719","496.617"
"3.60000","0.23596","510.685"
"3.70000","0.24442","524.686"
"3.80000","0.25279","538.826"
"3.90000","0.26095","552.178"
"4.00000","0.26942","566.132"
"4.10000","0.27759","580.86"
"4.20000","0.28595","594.162"
"4.30000","0.29442","607.316"
"4.40000","0.30278","621.124"
"4.50000","0.31115","635.923"
"4.60000","0.31962","649.576"
"4.70000","0.32758","662.946"
"4.80000","0.33554","675.889"
"4.90000","0.34401","688.766"
"5.00000","0.35278","703.049"
"5.10000","0.36124","717.101"
"5.20000","0.36951","730.223"
"5.30000","0.37798","743.323"
"5.40000","0.38604","756.499"
"5.50000","0.39390","770.025"
"5.60000","0.40237","783.789"
"5.70000","0.41114","797.512"
"5.80000","0.41960","811.59"
"5.90000","0.42777","824.865"
"6.00000","0.43593","838.844"
"6.10000","0.44420","851.847"
"6.20000","0.45226","865.23"
"6.30000","0.46093","877.887"
"6.40000","0.46960","891.951"
"6.50000","0.47786","905.013"
"6.60000","0.48572","918.433"
"6.70000","0.49399","931.408"
"6.80000","0.50246","944.976"
"6.90000","0.51062","958.403"
"7.00000","0.51889","971.827"
"7.10000","0.52745","985.566"
"7.20000","0.53622","999.871"
"7.30000","0.54449","1012.27"
"7.40000","0.55245","1025.94"
"7.50000","0.56061","1038.41"
"7.60000","0.56908","1052.75"
"7.70000","0.57755","1065.63"
"7.80000","0.58601","1078.42"
"7.90000","0.59458","1091.18"
"8.00000","0.60285","1104.53"
"8.10000","0.61081","1116.81"
"8.20000","0.61907","1129.99"
"8.30000","0.62754","1143.25"
"8.40000","0.63611","1156.19"
"8.50000","0.64447","1169"
"8.60000","0.65294","1182.33"
"8.70000","0.66090","1194.38"
"8.80000","0.66897","1206.79"
"8.90000","0.67723","1219.77"
"9.00000","0.68580","1233.15"
"9.10000","0.69437","1246.35"
"9.20000","0.70253","1257.97"
"9.30000","0.71090","1271.75"
"9.40000","0.71946","1284.75"
"9.50000","0.72763","1297.15"
"9.60000","0.73559","1309.96"
"9.70000","0.74406","1322.41"
"9.80000","0.75263","1335.84"
"9.90000","0.76099","1348.69"
"10.00000","0.76936","1360.7"
"10.10000","0.77772","1374.56"
"10.20000","0.78569","1385.09"
"10.30000","0.79375","1397.42"
"10.40000","0.80242","1409.75"
"10.50000","0.81119","1424.34"
"10.60000","0.81955","1436.61"
"10.70000","0.82782","1449.1"
"10.80000","0.83598","1461"
"10.90000","0.84435","1473.34"
"11.00000","0.85241","1485.74"
"11.10000","0.86068","1498.12"
"11.20000","0.86945","1511.17"
"11.30000","0.87761","1523.65"
"11.40000","0.88598","1536.4"
"11.50000","0.89414","1547.91"
"11.60000","0.90241","1559.77"
"11.70000","0.91077","1571.86"
"11.80000","0.91914","1583.63"
"11.90000","0.92760","1596.41"
"12.00000","0.93607","1609.84"
"12.10000","0.94444","1620.64"
"12.20000","0.95260","1632.67"
"12.30000","0.96066","1644.61"
"12.40000","0.96903","1655.84"
"12.50000","0.97760","1668.52"
"12.60000","0.98637","1680.9"
"12.70000","0.99463","1691.69"
"12.80000","1.00270","1703.95"
"12.90000","1.01066","1715.37"
"13.00000","1.01902","1727.27"
"13.10000","1.02739","1738.84"
"13.20000","1.03596","1751.87"
"13.30000","1.04432","1763.34"
"13.40000","1.05269","1775.73"
"13.50000","1.06105","1787.49"
"13.60000","1.06912","1799.48"
"13.70000","1.07738","1810.16"
"13.80000","1.08565","1821.46"
"13.90000","1.09411","1833.72"
"14.00000","1.10258","1845.18"
"14.10000","1.11125","1856.99"
"14.20000","1.11951","1868.95"
"14.30000","1.12728","1880.19"
"14.40000","1.13544","1890.96"
"14.50000","1.14411","1903.65"
"14.60000","1.15278","1916.08"
"14.70000","1.16114","1926.96"
"14.80000","1.16951","1938.11"
"14.90000","1.17777","1949.11"
"15.00000","1.18584","1960.37"
"15.10000","1.19390","1971.28"
"15.20000","1.20267","1981.85"
"15.30000","1.21124","1994.68"
"15.40000","1.21940","2006.11"
"15.50000","1.22757","2016.21"
"15.60000","1.23593","2027.06"
"15.70000","1.24410","2038.81"
"15.80000","1.25236","2049.9"
"15.90000","1.26113","2061.43"
"16.00000","1.26939","2072.61"
"16.10000","1.27766","2084.2"
"16.20000","1.28593","2095.24"
"16.30000","1.29399","2105.64"
"16.40000","1.30205","2116.23"
"16.50000","1.31052","2127.63"
"16.60000","1.31919","2138.26"
"16.70000","1.32786","2150.3"
"16.80000","1.33622","2160.81"
"16.90000","1.34428","2171.08"
"17.00000","1.35245","2181.9"
"17.10000","1.36051","2191.74"
"17.20000","1.36908","2203.3"
"17.30000","1.37775","2214.6"
"17.40000","1.38621","2225.86"
"17.50000","1.39448","2235.42"
"17.60000","1.40244","2245.89"
"17.70000","1.41061","2257.08"
"17.80000","1.41917","2266.85"
"17.90000","1.42764","2278.66"
"18.00000","1.43621","2289.06"
"18.10000","1.44437","2300.09"
"18.20000","1.45284","2310.86"
"18.30000","1.46121","2322.37"
"18.40000","1.46907","2331.83"
"18.50000","1.47753","2341.39"
"18.60000","1.48600","2353.02"
"18.70000","1.49427","2362.61"
"18.80000","1.50273","2372.84"
"18.90000","1.51110","2383.51"
"19.00000","1.51926","2393.68"
"19.10000","1.52733","2403.32"
"19.20000","1.53569","2413.65"
"19.30000","1.54436","2423.64"
"19.40000","1.55273","2434.29"
"19.50000","1.56099","2444.74"
"19.60000","1.56916","2454.56"
"19.70000","1.57732","2465.03"
"19.80000","1.58548","2475.69"
"19.90000","1.59405","2486.2"
"20.00000","1.60272","2497.66"
"20.10000","1.61119","2508.51"
"20.20000","1.61905","2516.68"
"20.30000","1.62762","2527.04"
"20.40000","1.63608","2538.02"
"20.50000","1.64425","2547.17"
"20.60000","1.65261","2557.22"
"20.70000","1.66128","2567.84"
"20.80000","1.66955","2578.07"
"20.90000","1.67761","2588.01"
"21.00000","1.68587","2597.57"
"21.10000","1.69414","2607.16"
"21.20000","1.70240","2616.29"
"21.30000","1.71087","2626.04"
"21.40000","1.71934","2636.72"
"21.50000","1.72801","2646.47"
"21.60000","1.73607","2656.46"
"21.70000","1.74433","2665.46"
"21.80000","1.75240","2674.66"
"21.90000","1.76056","2682.61"
"22.00000","1.76913","2692.98"
"22.10000","1.77760","2702.78"
"22.20000","1.78606","2712.18"
"22.30000","1.79423","2721.26"
"22.40000","1.80239","2730.39"
"22.50000","1.81066","2739.49"
"22.60000","1.81912","2749.61"
"22.70000","1.82769","2758.67"
"22.80000","1.83596","2766.87"
"22.90000","1.84442","2741.55"
"23.00000","1.85279","2709"
"23.10000","1.86085","2720.14"
"23.20000","1.86902","2731.26"
"23.30000","1.87748","2742.71"
"23.40000","1.88585","2753.18"
"23.50000","1.89442","2764.69"
"23.60000","1.90298","2776.06"
"23.70000","1.91135","2786.14"
"23.80000","1.91911","2796.34"
"23.90000","1.92717","2806.05"
"24.00000","1.93564","2816.73"
"24.10000","1.94441","2827.23"
"24.20000","1.95257","2836.57"
"24.30000","1.96094","2846.55"
"24.40000","1.96941","2857.82"
"24.50000","1.97747","2866.89"
"24.60000","1.98563","2876.94"
"24.70000","1.99440","2887.62"
"24.80000","2.00287","2898.22"
"24.90000","2.01093","2907.8"
"25.00000","2.01900","2917"
"25.10000","2.02746","2926.4"
"25.20000","2.03573","2936.01"
"25.30000","2.04389","2944.79"
"25.40000","2.05236","2955.19"
"25.50000","2.06093","2965.39"
"25.60000","2.06939","2974.21"
"25.70000","2.07786","2984.02"
"25.80000","2.08592","2993.39"
"25.90000","2.09419","3002.48"
"26.00000","2.10235","3011.84"
"26.10000","2.11102","3022.18"
"26.20000","2.11959","3030.9"
"26.30000","2.12806","3039.85"
"26.40000","2.13622","3048.69"
"26.50000","2.14418","3058.63"
"26.60000","2.15225","3065.9"
"26.70000","2.16061","3075.31"
"26.80000","2.16948","3085.75"
"26.90000","2.17795","3094.59"
"27.00000","2.18621","3103.75"
"27.10000","2.19418","3111.8"
"27.20000","2.20244","3120.51"
"27.30000","2.21071","3130.16"
"27.40000","2.21907","3137.76"
"27.50000","2.22764","3148.03"
"27.60000","2.23611","3157.2"
"27.70000","2.24437","3166.22"
"27.80000","2.25244","3174.77"
"27.90000","2.26050","3181.96"
"28.00000","2.26876","3190.09"
"28.10000","2.27763","3198.99"
"28.20000","2.28600","3208.65"
"28.30000","2.29447","3218.02"
"28.40000","2.30293","3226.4"
"28.50000","2.31110","3233.74"
"28.60000","2.31886","3241.52"
"28.70000","2.32712","3249.72"
"28.80000","2.33589","3258.4"
"28.90000","2.34446","3268.16"
"29.00000","2.35273","3275.32"
"29.10000","2.36089","3283.3"
"29.20000","2.36915","3291.65"
"29.30000","2.37712","3298.74"
"29.40000","2.38548","3307.29"
"29.50000","2.39445","3316.41"
"29.60000","2.40302","3325.23"
"29.70000","2.41119","3333.78"
"29.80000","2.41935","3341.51"
"29.90000","2.42772","3350.17"
"30.00000","2.43588","3358.47"
"30.10000","2.44414","3365.81"
"30.20000","2.45271","3300.11"
"30.30000","2.46128","3313.47"
"30.40000","2.46944","3323.67"
"30.50000","2.47761","3333.43"
"30.60000","2.48567","3343.54"
"30.70000","2.49374","3352.25"
"30.80000","2.50240","3362.39"
"30.90000","2.51097","3372.78"
"31.00000","2.51954","3382.76"
"31.10000","2.52801","3391.68"
"31.20000","2.53617","3355.08"
"31.30000","2.54403","3336.56"
"31.40000","2.55230","3346.98"
"31.50000","2.56107","3358.08"
"31.60000","2.56983","3369.06"
"31.70000","2.57820","3378.8"
"31.80000","2.58616","3388.67"
"31.90000","2.59413","3397.81"
"32.00000","2.60229","3406.8"
"32.10000","2.61066","3417.47"
"32.20000","2.61922","3427.4"
"32.30000","2.62769","3437.07"
"32.40000","2.63606","3447.54"
"32.50000","2.64442","3456.42"
"32.60000","2.65249","3464.97"
"32.70000","2.66075","3474.56"
"32.80000","2.66932","3484.86"
"32.90000","2.67758","3492.87"
"33.00000","2.68575","3501.81"
"33.10000","2.69442","3510.86"
"33.20000","2.70288","3520.63"
"33.30000","2.71084","3528.92"
"33.40000","2.71871","3537.44"
"33.50000","2.72717","3546.78"
"33.60000","2.73604","3556.2"
"33.70000","2.74441","3564.72"
"33.80000","2.75267","3572.74"
"33.90000","2.76094","3581.24"
"34.00000","2.76900","3589.49"
"34.10000","2.77707","3598.17"
"34.20000","2.78573","3605.57"
"34.30000","2.79450","3615.16"
"34.40000","2.80287","3623.45"
"34.50000","2.81093","3631.7"
"34.60000","2.81920","3639.08"
"34.70000","2.82746","3648.01"
"34.80000","2.83573","3655.59"
"34.90000","2.84419","3663.52"
"35.00000","2.85286","3671.91"
"35.10000","2.86123","3679.53"
"35.20000","2.86939","3686.32"
"35.30000","2.87746","3694.05"
"35.40000","2.88582","3701.41"
"35.50000","2.89409","3708.83"
"35.60000","2.90235","3716.26"
"35.70000","2.91112","3723.99"
"35.80000","2.91959","3732.18"
"35.90000","2.92765","3738.08"
"36.00000","2.93561","3744.82"
"36.10000","2.94368","3752.25"
"36.20000","2.95214","3758.38"
"36.30000","2.96091","3766.25"
"36.40000","2.96948","3773.35"
"36.50000","2.97775","3780.37"
"36.60000","2.98601","3787.02"
"36.70000","2.99418","3793.62"
"36.80000","3.00254","3799.38"
"36.90000","3.01091","3807.98"
"37.00000","3.01937","3813.6"
"37.10000","3.02774","3820.65"
"37.20000","3.03631","3827.33"
"37.30000","3.04467","3833.96"
"37.40000","3.05243","3840.06"
"37.50000","3.06070","3844.6"
"37.60000","3.06917","3847.59"
"37.70000","3.07753","3848.34"
"37.80000","3.08600","3854.98"
"37.90000","3.09467","3860.91"
"38.00000","3.10283","3866.9"
"38.10000","3.11069","3871.89"
"38.20000","3.11886","3877.9"
"38.30000","3.12742","3884.87"
"38.40000","3.13609","3891.82"
"38.50000","3.14426","3896.52"
"38.60000","3.15262","3823.54"
"38.70000","3.16099","3836.03"
"38.80000","3.16885","3843.69"
"38.90000","3.17712","3851.45"
"39.00000","3.18599","3859.75"
"39.10000","3.19465","3868.04"
"39.20000","3.20272","3875.46"
"39.30000","3.21108","3882.54"
"39.40000","3.21955","3888.14"
"39.50000","3.22771","3895.6"
"39.60000","3.23588","3901.27"
"39.70000","3.24424","3908.41"
"39.80000","3.25291","3915.94"
"39.90000","3.26118","3922.93"
"40.00000","3.26954","3928.55"
"40.10000","3.27751","3934.34"
"40.20000","3.28577","3939.54"
"40.30000","3.29394","3946.08"
"40.40000","3.30260","3952.34"
"40.50000","3.31137","3958.59"
"40.60000","3.31974","3965.25"
"40.70000","3.32800","3970.52"
"40.80000","3.33587","3975.61"
"40.90000","3.34403","3979.72"
"41.00000","3.35240","3985.25"
"41.10000","3.36096","3990.29"
"41.20000","3.36943","3994.41"
"41.30000","3.37770","3999.89"
"41.40000","3.38586","4003.47"
"41.50000","3.39402","4007.73"
"41.60000","3.40239","4011.34"
"41.70000","3.41086","4015.17"
"41.80000","3.41922","4019"
"41.90000","3.42769","4022.05"
"42.00000","3.43626","4024.93"
"42.10000","3.44442","4027.22"
"42.20000","3.45248","4029.83"
"42.30000","3.46085","4032.15"
"42.40000","3.46932","4033.04"
"42.50000","3.47778","4034.09"
"42.60000","3.48625","4034"
"42.70000","3.49472","4033.62"
"42.80000","3.50288","4032.57"
"42.90000","3.51064","4029.8"
"43.00000","3.51901","4025.19"
"43.10000","3.52768","4010.33"
"43.20000","3.53624","4003.6"
"43.30000","3.54451","3992.28"
"43.40000","3.55288","3976.97"
"43.50000","3.56084","3947.53"
"43.59400","3.56850","3618.07"
"43.59800","3.56890","3275.34"
"43.60200","3.56920","2867.04"
"43.60600","3.56971","2422.99"
"43.60800","3.56991","2203.32"