File: Data_Processing/Tensile-Data/Sequence_10.csv
General : Start date,"10/22/2024 9:38 AM"
General : End date,"10/22/2024 9:39 AM"
Specimen notes : Specimen note 1,"green, 200, batch 6, seq 10"
Test : Rate 1,"5.00000",mm/min

Time,Extension,Load
(s),(mm),(N)
"0.00000","-0.00020","1.16497"
"0.10000","0.00101","1.00984"
"0.20000","0.00947","10.76237"
"0.30000","0.02338","35.68785"
"0.40000","0.03286","56.41679"
"0.50000","0.04072","69.71476"
"0.60000","0.04939","84.78900"
"0.70000","0.05806","99.36569"
"0.80000","0.06673","112.228"
"0.90000","0.07509","125.973"
"1.00000","0.08356","139.465"
"1.10000","0.09182","141.569"
"1.20000","0.09979","155.711"
"1.30000","0.10785","169.295"
"1.40000","0.11642","182.675"
"1.50000","0.12519","197.203"
"1.60000","0.13365","210.991"
"1.70000","0.14192","225.309"
"1.80000","0.14998","238.515"
"1.90000","0.15815","252.738"
"2.00000","0.16661","267.534"
"2.10000","0.17498","281.82"
"2.20000","0.18355","294.766"
"2.30000","0.19201","310.023"
"2.40000","0.20018","323.024"
"2.50000","0.20824","338.04"
"2.60000","0.21640","351.389"
"2.70000","0.22477","365.513"
"2.80000","0.23324","379.162"
"2.90000","0.24180","393.482"
"3.00000","0.25027","407.911"
"3.10000","0.25884","421.589"
"3.20000","0.26660","435.571"
"3.30000","0.27466","448.443"
"3.40000","0.28313","461.633"
"3.50000","0.29180","476.256"
"3.60000","0.29996","488.373"
"3.70000","0.30823","501.779"
"3.80000","0.31690","515.554"
"3.90000","0.32496","529.841"
"4.00000","0.33292","542.096"
"4.10000","0.34129","555.511"
"4.20000","0.34996","569.506"
"4.30000","0.35842","583.635"
"4.40000","0.36669","597.434"
"4.50000","0.37505","611.202"
"4.60000","0.38322","624.506"
"4.70000","0.39148","637.754"
"4.80000","0.39985","651.176"
"4.90000","0.40862","665.039"
"5.00000","0.41688","678.103"
"5.10000","0.42485","690.397"
"5.20000","0.43311","704.599"
"5.30000","0.44158","717.381"
"5.40000","0.44984","731.053"
"5.50000","0.45811","742.892"
"5.60000","0.46678","756.648"
"5.70000","0.47534","770.379"
"5.80000","0.48361","783.974"
"5.90000","0.49167","798.09"
"6.00000","0.49994","810.572"
"6.10000","0.50820","823.308"
"6.20000","0.51657","836.125"
"6.30000","0.52493","850.427"
"6.40000","0.53340","863.047"
"6.50000","0.54187","875.873"
"6.60000","0.54993","889.047"
"6.70000","0.55830","901.008"
"6.80000","0.56656","914.373"
"6.90000","0.57483","927.601"
"7.00000","0.58329","941.045"
"7.10000","0.59176","954.567"
"7.20000","0.59992","967.926"
"7.30000","0.60789","979.778"
"7.40000","0.61615","992.48"
"7.50000","0.62472","1005.4"
"7.60000","0.63339","1018.11"
"7.70000","0.64175","1031.78"
"7.80000","0.65002","1044.47"
"7.90000","0.65838","1057.55"
"8.00000","0.66675","1070.46"
"8.10000","0.67491","1083"
"8.20000","0.68338","1095.5"
"8.30000","0.69175","1109.72"
"8.40000","0.70001","1122.11"
"8.50000","0.70858","1134.2"
"8.60000","0.71695","1146.33"
"8.70000","0.72491","1158.87"
"8.80000","0.73297","1171.67"
"8.90000","0.74154","1183.81"
"9.00000","0.75021","1197.24"
"9.10000","0.75847","1210.28"
"9.20000","0.76684","1221.71"
"9.30000","0.77520","1234.44"
"9.40000","0.78307","1245.82"
"9.50000","0.79113","1258.46"
"9.60000","0.79960","1271.33"
"9.70000","0.80847","1284.56"
"9.80000","0.81673","1296.8"
"9.90000","0.82490","1308.87"
"10.00000","0.83326","1321.84"
"10.10000","0.84153","1333.11"
"10.20000","0.84989","1346.13"
"10.30000","0.85836","1358.27"
"10.40000","0.86672","1371.03"
"10.50000","0.87499","1383.2"
"10.60000","0.88325","1394.28"
"10.70000","0.89142","1406.46"
"10.80000","0.89958","1417.97"
"10.90000","0.90785","1430.98"
"11.00000","0.91631","1443.78"
"11.10000","0.92508","1457"
"11.20000","0.93375","1468.94"
"11.30000","0.94182","1480.49"
"11.40000","0.94988","1492.02"
"11.50000","0.95794","1505.01"
"11.60000","0.96651","1517.31"
"11.70000","0.97508","1529.81"
"11.80000","0.98365","1542.5"
"11.90000","0.99201","1554.29"
"12.00000","1.00018","1565.42"
"12.10000","1.00804","1575.99"
"12.20000","1.01620","1588.2"
"12.30000","1.02477","1600.08"
"12.40000","1.03334","1612.1"
"12.50000","1.04180","1624.22"
"12.60000","1.05017","1635.84"
"12.70000","1.05833","1647.76"
"12.80000","1.06630","1659.2"
"12.90000","1.07456","1670.91"
"13.00000","1.08323","1682.78"
"13.10000","1.09149","1694.08"
"13.20000","1.09986","1705.96"
"13.30000","1.10853","1718.08"
"13.40000","1.11699","1730.15"
"13.50000","1.12466","1740.81"
"13.60000","1.13282","1751.2"
"13.70000","1.14149","1763.22"
"13.80000","1.15006","1775.99"
"13.90000","1.15832","1787.02"
"14.00000","1.16689","1797.51"
"14.10000","1.17505","1809.11"
"14.20000","1.18281","1820.83"
"14.30000","1.19128","1832.14"
"14.40000","1.20005","1843.02"
"14.50000","1.20862","1855.05"
"14.60000","1.21678","1866.05"
"14.70000","1.22484","1877.53"
"14.80000","1.23321","1888.92"
"14.90000","1.24148","1900.35"
"15.00000","1.24974","1912.18"
"15.10000","1.25831","1923.28"
"15.20000","1.26677","1933.89"
"15.30000","1.27514","1944.03"
"15.40000","1.28320","1955.28"
"15.50000","1.29147","1965.67"
"15.60000","1.29963","1976.85"
"15.70000","1.30810","1987.64"
"15.80000","1.31657","1999.06"
"15.90000","1.32523","2009.87"
"16.00000","1.33350","2020.83"
"16.10000","1.34176","2032.03"
"16.20000","1.34973","2042.57"
"16.30000","1.35789","2053.19"
"16.40000","1.36656","2064.89"
"16.50000","1.37533","2076.97"
"16.60000","1.38380","2088.16"
"16.70000","1.39176","2099.54"
"16.80000","1.39972","2109.97"
"16.90000","1.40799","2118.66"
"17.00000","1.41635","2130.72"
"17.10000","1.42492","2141.82"
"17.20000","1.43349","2152.56"
"17.30000","1.44185","2163.57"
"17.40000","1.45012","2174.56"
"17.50000","1.45838","2185.04"
"17.60000","1.46655","2196.04"
"17.70000","1.47491","2206.1"
"17.80000","1.48318","2216.74"
"17.90000","1.49144","2226.3"
"18.00000","1.50011","2237.85"
"18.10000","1.50868","2249.35"
"18.20000","1.51674","2259.25"
"18.30000","1.52460","2269.02"
"18.40000","1.53307","2279.6"
"18.50000","1.54194","2291.18"
"18.60000","1.55021","2302.36"
"18.70000","1.55827","2312.13"
"18.80000","1.56674","2322.63"
"18.90000","1.57510","2333.08"
"19.00000","1.58306","2342.22"
"19.10000","1.59143","2352.12"
"19.20000","1.60030","2363.23"
"19.30000","1.60857","2374.51"
"19.40000","1.61653","2384.87"
"19.50000","1.62479","2394.28"
"19.60000","1.63326","2404.91"
"19.70000","1.64153","2414.05"
"19.80000","1.64999","2424.85"
"19.90000","1.65846","2435.06"
"20.00000","1.66672","2445.37"
"20.10000","1.67509","2455.16"
"20.20000","1.68325","2460.61"
"20.30000","1.69142","2470.9"
"20.40000","1.69968","2479.96"
"20.50000","1.70805","2490.62"
"20.60000","1.71672","2502.19"
"20.70000","1.72518","2512.16"
"20.80000","1.73335","2522.29"
"20.90000","1.74161","2530.9"
"21.00000","1.74968","2540.68"
"21.10000","1.75794","2550.19"
"21.20000","1.76661","2560.68"
"21.30000","1.77518","2571.32"
"21.40000","1.78364","2581.23"
"21.50000","1.79171","2591.22"
"21.60000","1.79987","2600.25"
"21.70000","1.80814","2609.61"
"21.80000","1.81640","2618.81"
"21.90000","1.82487","2629.6"
"22.00000","1.83334","2639.94"
"22.10000","1.84180","2651.16"
"22.20000","1.85027","2659.06"
"22.30000","1.85823","2667.93"
"22.40000","1.86650","2676.94"
"22.50000","1.87506","2687.12"
"22.60000","1.88343","2696.95"
"22.70000","1.89180","2706.52"
"22.80000","1.90026","2716.19"
"22.90000","1.90863","2724.49"
"23.00000","1.91659","2734.41"
"23.10000","1.92455","2743.55"
"23.20000","1.93312","2753.59"
"23.30000","1.94169","2763.5"
"23.40000","1.94985","2772.4"
"23.50000","1.95822","2781.7"
"23.60000","1.96658","2789.4"
"23.70000","1.97475","2798.78"
"23.80000","1.98281","2807.75"
"23.90000","1.99138","2817.4"
"24.00000","2.00015","2828.41"
"24.10000","2.00831","2837.13"
"24.20000","2.01648","2846.28"
"24.30000","2.02494","2855.76"
"24.40000","2.03341","2859.88"
"24.50000","2.04157","2868.6"
"24.60000","2.05014","2877.69"
"24.70000","2.05851","2886.62"
"24.80000","2.06687","2896.23"
"24.90000","2.07514","2904.3"
"25.00000","2.08310","2913.84"
"25.10000","2.09157","2921.98"
"25.20000","2.09973","2932.24"
"25.30000","2.10820","2941.82"
"25.40000","2.11677","2949.63"
"25.50000","2.12523","2957.75"
"25.60000","2.13350","2965.24"
"25.70000","2.14156","2974.29"
"25.80000","2.14963","2982.61"
"25.90000","2.15809","2992.17"
"26.00000","2.16676","3001.75"
"26.10000","2.17513","3010.41"
"26.20000","2.18349","3018.99"
"26.30000","2.19146","3026.32"
"26.40000","2.19952","3035.16"
"26.50000","2.20778","3043.98"
"26.60000","2.21645","3052.51"
"26.70000","2.22492","3060.55"
"26.80000","2.23349","3070.06"
"26.90000","2.24205","3078.39"
"27.00000","2.25012","3086.94"
"27.10000","2.25798","3094.67"
"27.20000","2.26645","3103.94"
"27.30000","2.27491","3113.23"
"27.40000","2.28328","3121.83"
"27.50000","2.29185","3129.2"
"27.60000","2.30031","3137.92"
"27.70000","2.30848","3146.21"
"27.80000","2.31634","3153.34"
"27.90000","2.32460","3161.13"
"28.00000","2.33347","3170.44"
"28.10000","2.34194","3178.44"
"28.20000","2.35010","3186.34"
"28.30000","2.35847","3194.87"
"28.40000","2.36643","3121.89"
"28.50000","2.37470","3109.18"
"28.60000","2.38306","3119.13"
"28.70000","2.39173","3129.28"
"28.80000","2.40020","3138.84"
"28.90000","2.40816","3148.08"
"29.00000","2.41643","3157.64"
"29.10000","2.42469","3167.91"
"29.20000","2.43306","3176.33"
"29.30000","2.44142","3185.26"
"29.40000","2.44999","3195.23"
"29.50000","2.45836","3203.3"
"29.60000","2.46682","3213.44"
"29.70000","2.47499","3222.15"
"29.80000","2.48305","3229.79"
"29.90000","2.49132","3238.28"
"30.00000","2.49998","3247.24"
"30.10000","2.50875","3255.77"
"30.20000","2.51722","3235.22"
"30.30000","2.52538","3246.75"
"30.40000","2.53345","3253.2"
"30.50000","2.54121","3260.8"
"30.60000","2.54968","3268.95"
"30.70000","2.55824","3278.6"
"30.80000","2.56691","3287.56"
"30.90000","2.57528","3293"
"31.00000","2.58334","3301.19"
"31.10000","2.59151","3309.27"
"31.20000","2.59977","3316.73"
"31.30000","2.60834","3324.3"
"31.40000","2.61670","3332.72"
"31.50000","2.62507","3339.75"
"31.60000","2.63344","3348.12"
"31.70000","2.64160","3356.7"
"31.80000","2.64976","3363.19"
"31.90000","2.65783","3369.81"
"32.00000","2.66629","3377.39"
"32.10000","2.67486","3385.37"
"32.20000","2.68333","3392.93"
"32.30000","2.69179","3400.34"
"32.40000","2.70026","3406.91"
"32.50000","2.70822","3414"
"32.60000","2.71619","3419.65"
"32.70000","2.72475","3428.27"
"32.80000","2.73352","3433.65"
"32.90000","2.74179","3439.45"
"33.00000","2.74995","3446.76"
"33.10000","2.75822","3450.14"
"33.20000","2.76648","3453"
"33.30000","2.77475","3456.62"
"33.40000","2.78332","3462.73"
"33.50000","2.79198","3470.03"
"33.60000","2.80025","3475.58"
"33.70000","2.80821","3481.11"
"33.80000","2.81668","3486.78"
"33.90000","2.82504","3491.76"
"34.00000","2.83321","3496.58"
"34.10000","2.84147","3501.36"
"34.20000","2.85004","3505.99"
"34.30000","2.85861","3510.79"
"34.40000","2.86677","3514.03"
"34.50000","2.87484","3518.47"
"34.60000","2.88300","3521.98"
"34.70000","2.89116","3525.54"
"34.80000","2.89983","3529.69"
"34.90000","2.90840","3533.21"
"35.00000","2.91687","3535.8"
"35.10000","2.92523","3537.1"
"35.20000","2.93330","3538.31"
"35.30000","2.94136","3539.16"
"35.40000","2.94973","3538.69"
"35.50000","2.95860","3538.66"
"35.60000","2.96716","3535.17"
"35.70000","2.97543","3529.83"
"35.80000","2.98339","3520.24"
"35.90000","2.99145","3505.11"
"36.00000","2.99962","3484.43"
"36.10000","3.00809","3449.58"
"36.20000","3.01675","3391.95"
"36.30000","3.02522","3318.84"
"36.40000","3.03359","3252.78"
"36.50000","3.04185","3191.35"
"36.60000","3.05002","3122.69"
"36.66200","3.05495","2832.68"
"36.66600","3.05536","2566.82"
"36.67000","3.05576","2247.12"
"36.67400","3.05616","1901.24"
"36.67600","3.05637","1729.43"