File: Data_Processing/Tensile-Data/Sequence_32.csv
General : Start date,"10/29/2024 10:25 AM"
General : End date,"10/29/2024 10:25 AM"
Specimen notes : Specimen note 1,"Day 2, blue, 215, batch 8, seq 32"
Test : Rate 1,"5.00000",mm/min

Time,Extension,Load
(s),(mm),(N)
"0.00000","0.00010","0.13382"
"0.10000","0.00333","1.84817"
"0.20000","0.01643","22.61315"
"0.30000","0.02742","45.05878"
"0.40000","0.03487","58.82217"
"0.50000","0.04324","71.48237"
"0.60000","0.05211","88.07114"
"0.70000","0.06078","102.736"
"0.80000","0.06935","116.494"
"0.90000","0.07741","130.198"
"1.00000","0.08588","144.713"
"1.10000","0.09454","159.145"
"1.20000","0.10241","172.545"
"1.30000","0.11057","187.056"
"1.40000","0.11934","201.027"
"1.50000","0.12801","214.403"
"1.60000","0.13627","227.683"
"1.70000","0.14454","240.833"
"1.80000","0.15270","253.533"
"1.90000","0.16067","266.155"
"2.00000","0.16903","279.245"
"2.10000","0.17760","292.912"
"2.20000","0.18607","307.495"
"2.30000","0.19443","320.533"
"2.40000","0.20260","334.896"
"2.50000","0.21066","347.274"
"2.60000","0.21872","360.196"
"2.70000","0.22729","374.246"
"2.80000","0.23596","388.517"
"2.90000","0.24442","401.852"
"3.00000","0.25279","414.542"
"3.10000","0.26085","427.367"
"3.20000","0.26902","440.336"
"3.30000","0.27708","452.673"
"3.40000","0.28565","466.521"
"3.50000","0.29432","478.522"
"3.60000","0.30278","491.346"
"3.70000","0.31095","503.583"
"3.80000","0.31931","516.741"
"3.90000","0.32748","529.286"
"4.00000","0.33584","540.97"
"4.10000","0.34431","554.363"
"4.20000","0.35278","566.769"
"4.30000","0.36114","580.261"
"4.40000","0.36951","592.161"
"4.50000","0.37757","604.092"
"4.60000","0.38564","616.906"
"4.70000","0.39400","628.174"
"4.80000","0.40247","641.573"
"4.90000","0.41083","653.596"
"5.00000","0.41920","665.709"
"5.10000","0.42767","677.489"
"5.20000","0.43573","688.159"
"5.30000","0.44379","699.52"
"5.40000","0.45226","711.543"
"5.50000","0.46083","723.516"
"5.60000","0.46930","735.732"
"5.70000","0.47766","747.063"
"5.80000","0.48583","758.409"
"5.90000","0.49379","769.633"
"6.00000","0.50195","781.199"
"6.10000","0.51072","792.744"
"6.20000","0.51939","804.991"
"6.30000","0.52765","815.966"
"6.40000","0.53552","826.084"
"6.50000","0.54398","837.325"
"6.60000","0.55255","849.678"
"6.70000","0.56082","859.645"
"6.80000","0.56928","871.218"
"6.90000","0.57785","882.191"
"7.00000","0.58622","893.988"
"7.10000","0.59438","904.511"
"7.20000","0.60244","914.189"
"7.30000","0.61081","924.672"
"7.40000","0.61928","935.493"
"7.50000","0.62754","947.205"
"7.60000","0.63611","958.297"
"7.70000","0.64447","969.094"
"7.80000","0.65264","980.547"
"7.90000","0.66080","991.354"
"8.00000","0.66897","1002.17"
"8.10000","0.67723","1012.65"
"8.20000","0.68570","1023.38"
"8.30000","0.69437","1034.54"
"8.40000","0.70283","1044.57"
"8.50000","0.71090","1052.51"
"8.60000","0.71896","1063.17"
"8.70000","0.72702","1073.44"
"8.80000","0.73559","1082.24"
"8.90000","0.74416","1092.72"
"9.00000","0.75263","1101.66"
"9.10000","0.76079","1112.25"
"9.20000","0.76895","1121.09"
"9.30000","0.77732","1129.98"
"9.40000","0.78569","1140.26"
"9.50000","0.79395","1149.51"
"9.60000","0.80232","1160.44"
"9.70000","0.81099","1170.76"
"9.80000","0.81965","1180.58"
"9.90000","0.82792","1190.01"
"10.00000","0.83578","1199"
"10.10000","0.84384","1208.95"
"10.20000","0.85241","1218.22"
"10.30000","0.86118","1228.72"
"10.40000","0.86945","1238.02"
"10.50000","0.87771","1247.37"
"10.60000","0.88608","1257.63"
"10.70000","0.89404","1266.4"
"10.80000","0.90200","1275.52"
"10.90000","0.91067","1284.82"
"11.00000","0.91924","1296.18"
"11.10000","0.92770","1305.79"
"11.20000","0.93587","1314.86"
"11.30000","0.94403","1323.83"
"11.40000","0.95220","1333.39"
"11.50000","0.96036","1343.02"
"11.60000","0.96903","1351.7"
"11.70000","0.97750","1363"
"11.80000","0.98576","1372.17"
"11.90000","0.99413","1381.61"
"12.00000","1.00229","1390.98"
"12.10000","1.01076","1400.45"
"12.20000","1.01902","1409.7"
"12.30000","1.02749","1419.1"
"12.40000","1.03596","1429.61"
"12.50000","1.04442","1439.06"
"12.60000","1.05279","1446.98"
"12.70000","1.06075","1455.27"
"12.80000","1.06882","1464.06"
"12.90000","1.07698","1473.33"
"13.00000","1.08585","1483.37"
"13.10000","1.09462","1492.51"
"13.20000","1.10288","1501.69"
"13.30000","1.11085","1509.91"
"13.40000","1.11891","1519.14"
"13.50000","1.12738","1528.22"
"13.60000","1.13564","1537.1"
"13.70000","1.14431","1546.28"
"13.80000","1.15278","1556.12"
"13.90000","1.16114","1565.81"
"14.00000","1.16911","1574.25"
"14.10000","1.17697","1582.37"
"14.20000","1.18553","1591.48"
"14.30000","1.19410","1601.14"
"14.40000","1.20227","1609.95"
"14.50000","1.21073","1619.59"
"14.60000","1.21950","1627.49"
"14.70000","1.22777","1635.31"
"14.80000","1.23553","1642.96"
"14.90000","1.24369","1652.23"
"15.00000","1.25236","1661.76"
"15.10000","1.26103","1670.45"
"15.20000","1.26939","1679.31"
"15.30000","1.27756","1687.52"
"15.40000","1.28582","1695.53"
"15.50000","1.29379","1705.07"
"15.60000","1.30215","1712.5"
"15.70000","1.31112","1722.01"
"15.80000","1.31979","1731.41"
"15.90000","1.32786","1740.22"
"16.00000","1.33572","1747.23"
"16.10000","1.34418","1757.39"
"16.20000","1.35235","1765.31"
"16.30000","1.36071","1774.48"
"16.40000","1.36908","1783.15"
"16.50000","1.37765","1791.47"
"16.60000","1.38601","1800.67"
"16.70000","1.39418","1809.9"
"16.80000","1.40224","1818.11"
"16.90000","1.41051","1826.8"
"17.00000","1.41887","1836.51"
"17.10000","1.42744","1845.33"
"17.20000","1.43611","1854.77"
"17.30000","1.44457","1863.43"
"17.40000","1.45254","1871.67"
"17.50000","1.46040","1879.85"
"17.60000","1.46866","1887.93"
"17.70000","1.47753","1897.55"
"17.80000","1.48620","1906.93"
"17.90000","1.49447","1913.91"
"18.00000","1.50263","1923.49"
"18.10000","1.51070","1931.76"
"18.20000","1.51896","1938.8"
"18.30000","1.52733","1947.98"
"18.40000","1.53589","1957.26"
"18.50000","1.54446","1965.89"
"18.60000","1.55283","1974.19"
"18.70000","1.56109","1982.77"
"18.80000","1.56916","1990.7"
"18.90000","1.57742","1999.51"
"19.00000","1.58569","2008.03"
"19.10000","1.59415","2017.09"
"19.20000","1.60252","2025.54"
"19.30000","1.61109","2033.92"
"19.40000","1.61945","2042.22"
"19.50000","1.62731","2050.85"
"19.60000","1.63538","2059.04"
"19.70000","1.64374","2067.63"
"19.80000","1.65251","2077.4"
"19.90000","1.66098","2086.1"
"20.00000","1.66934","2094.04"
"20.10000","1.67781","2103.58"
"20.20000","1.68567","2110.93"
"20.30000","1.69384","2119.07"
"20.40000","1.70251","2127.87"
"20.50000","1.71107","2136.77"
"20.60000","1.71944","2145.82"
"20.70000","1.72750","2154"
"20.80000","1.73587","2161.78"
"20.90000","1.74413","2171.02"
"21.00000","1.75240","2178.31"
"21.10000","1.76097","2188.05"
"21.20000","1.76943","2195.77"
"21.30000","1.77780","2204.31"
"21.40000","1.78606","2212.72"
"21.50000","1.79403","2221.57"
"21.60000","1.80229","2230.46"
"21.70000","1.81056","2237.91"
"21.80000","1.81902","2246.92"
"21.90000","1.82749","2255.14"
"22.00000","1.83606","2263.48"
"22.10000","1.84432","2272.42"
"22.20000","1.85239","2280.59"
"22.30000","1.86045","2288.87"
"22.40000","1.86871","2297.27"
"22.50000","1.87738","2305.68"
"22.60000","1.88585","2313.81"
"22.70000","1.89421","2323.38"
"22.80000","1.90238","2330.52"
"22.90000","1.91054","2338.14"
"23.00000","1.91901","2345.52"
"23.10000","1.92748","2353.43"
"23.20000","1.93604","2361.73"
"23.30000","1.94451","2370.84"
"23.40000","1.95288","2378.65"
"23.50000","1.96114","2387.01"
"23.60000","1.96910","2394.8"
"23.70000","1.97737","2402.32"
"23.80000","1.98574","2410.49"
"23.90000","1.99410","2418.23"
"24.00000","2.00247","2426.87"
"24.10000","2.01093","2434.93"
"24.20000","2.01950","2443.03"
"24.30000","2.02736","2450.96"
"24.40000","2.03543","2458.58"
"24.50000","2.04399","2466.71"
"24.60000","2.05256","2474.83"
"24.70000","2.06083","2482.12"
"24.80000","2.06939","2490.75"
"24.90000","2.07756","2499.58"
"25.00000","2.08542","2506.07"
"25.10000","2.09369","2513.84"
"25.20000","2.10245","2522.74"
"25.30000","2.11122","2531.5"
"25.40000","2.11929","2539.72"
"25.50000","2.12755","2546.15"
"25.60000","2.13572","2554.02"
"25.70000","2.14408","2562.53"
"25.80000","2.15245","2569.63"
"25.90000","2.16081","2577.67"
"26.00000","2.16938","2586.09"
"26.10000","2.17765","2594.79"
"26.20000","2.18591","2602.14"
"26.30000","2.19408","2609.25"
"26.40000","2.20234","2617.64"
"26.50000","2.21061","2625.68"
"26.60000","2.21917","2634.63"
"26.70000","2.22774","2642.12"
"26.80000","2.23611","2650.84"
"26.90000","2.24427","2658.88"
"27.00000","2.25233","2665.67"
"27.10000","2.26050","2673.88"
"27.20000","2.26897","2682.21"
"27.30000","2.27763","2690.13"
"27.40000","2.28610","2697.65"
"27.50000","2.29426","2705.69"
"27.60000","2.30223","2713.51"
"27.70000","2.31049","2720.97"
"27.80000","2.31876","2729.65"
"27.90000","2.32743","2736.67"
"28.00000","2.33599","2746.14"
"28.10000","2.34426","2754.26"
"28.20000","2.35262","2761.92"
"28.30000","2.36099","2769.9"
"28.40000","2.36885","2776.67"
"28.50000","2.37752","2785.33"
"28.60000","2.38599","2793.87"
"28.70000","2.39415","2801.46"
"28.80000","2.40272","2809.84"
"28.90000","2.41119","2817.86"
"29.00000","2.41935","2824.46"
"29.10000","2.42721","2831.87"
"29.20000","2.43558","2840.03"
"29.30000","2.44435","2848.91"
"29.40000","2.45281","2855.1"
"29.50000","2.46108","2862.81"
"29.60000","2.46934","2871.01"
"29.70000","2.47761","2878.62"
"29.80000","2.48567","2887.02"
"29.90000","2.49404","2894.03"
"30.00000","2.50281","2902.61"
"30.10000","2.51117","2910.18"
"30.20000","2.51914","2917.67"
"30.30000","2.52730","2925.33"
"30.40000","2.53556","2933.21"
"30.50000","2.54383","2940.02"
"30.60000","2.55220","2948.53"
"30.70000","2.56086","2956.2"
"30.80000","2.56923","2964.25"
"30.90000","2.57770","2972.06"
"31.00000","2.58586","2980.12"
"31.10000","2.59392","2987.89"
"31.20000","2.60239","2995.35"
"31.30000","2.61076","3003.49"
"31.40000","2.61932","3011.18"
"31.50000","2.62779","3018.79"
"31.60000","2.63606","3025.64"
"31.70000","2.64412","3032.95"
"31.80000","2.65208","3041.08"
"31.90000","2.66055","3048.22"
"32.00000","2.66932","3057.37"
"32.10000","2.67799","3065.44"
"32.20000","2.68635","3072.22"
"32.30000","2.69431","3080.24"
"32.40000","2.70238","3086.85"
"32.50000","2.71054","3094.49"
"32.60000","2.71891","3101.75"
"32.70000","2.72748","3110.02"
"32.80000","2.73604","3116.96"
"32.90000","2.74441","3125.31"
"33.00000","2.75257","3131.79"
"33.10000","2.76064","3139.25"
"33.20000","2.76890","3146.34"
"33.30000","2.77737","3154.43"
"33.40000","2.78563","3161.92"
"33.50000","2.79370","3168.71"
"33.60000","2.80237","3176.17"
"33.70000","2.81083","3184.4"
"33.80000","2.81890","3191.3"
"33.90000","2.82706","3198.27"
"34.00000","2.83573","3205.92"
"34.10000","2.84440","3213.67"
"34.20000","2.85276","3220.84"
"34.30000","2.86113","3228.49"
"34.40000","2.86939","3236.03"
"34.50000","2.87726","3241.8"
"34.60000","2.88532","3249.15"
"34.70000","2.89399","3256.34"
"34.80000","2.90276","3265.08"
"34.90000","2.91102","3272.58"
"35.00000","2.91919","3279.44"
"35.10000","2.92755","3286.77"
"35.20000","2.93602","3294.68"
"35.30000","2.94438","3301.15"
"35.40000","2.95275","3309.15"
"35.50000","2.96122","3316.27"
"35.60000","2.96918","3323.17"
"35.70000","2.97744","3330.26"
"35.80000","2.98561","3337.01"
"35.90000","2.99397","3344.12"
"36.00000","3.00224","3351.82"
"36.10000","3.01061","3358.71"
"36.20000","3.01917","3366.67"
"36.30000","3.02764","3373.35"
"36.40000","3.03601","3380.93"
"36.50000","3.04407","3387.13"
"36.60000","3.05223","3394.05"
"36.70000","3.06050","3401.84"
"36.80000","3.06937","3409.06"
"36.90000","3.07804","3417.85"
"37.00000","3.08610","3424.36"
"37.10000","3.09416","3431.65"
"37.20000","3.10233","3437.66"
"37.30000","3.11069","3445.75"
"37.40000","3.11906","3452.72"
"37.50000","3.12763","3459.59"
"37.60000","3.13599","3466.38"
"37.70000","3.14436","3473.71"
"37.80000","3.15262","3480.17"
"37.90000","3.16069","3486.62"
"38.00000","3.16895","3493.76"
"38.10000","3.17742","3502.13"
"38.20000","3.18558","3508.2"
"38.30000","3.19425","3515.91"
"38.40000","3.20282","3523.04"
"38.50000","3.21098","3529.39"
"38.60000","3.21884","3536.8"
"38.70000","3.22711","3542.64"
"38.80000","3.23588","3551.29"
"38.90000","3.24424","3557.81"
"39.00000","3.25251","3564.6"
"39.10000","3.26108","3571.47"
"39.20000","3.26924","3577.19"
"39.30000","3.27720","3584.05"
"39.40000","3.28547","3591"
"39.50000","3.29434","3597.88"
"39.60000","3.30281","3606.02"
"39.70000","3.31087","3611.12"
"39.80000","3.31903","3617.61"
"39.90000","3.32740","3624.46"
"40.00000","3.33566","3631.07"
"40.10000","3.34403","3637.73"
"40.20000","3.35280","3644.88"
"40.30000","3.36106","3651.79"
"40.40000","3.36933","3658.47"
"40.50000","3.37770","3664.35"
"40.60000","3.38556","3671.37"
"40.70000","3.39362","3677.42"
"40.80000","3.40229","3683.79"
"40.90000","3.41116","3692.14"
"41.00000","3.41963","3698.72"
"41.10000","3.42779","3704.55"
"41.20000","3.43585","3709.86"
"41.30000","3.44382","3715.71"
"41.40000","3.45218","3723.13"
"41.50000","3.46075","3729.72"
"41.60000","3.46942","3737.14"
"41.70000","3.47799","3744.16"
"41.80000","3.48615","3749.4"
"41.90000","3.49421","3755.47"
"42.00000","3.50228","3762.2"
"42.10000","3.51064","3768.23"
"42.20000","3.51911","3774.73"
"42.30000","3.52768","3780.95"
"42.40000","3.53594","3787.92"
"42.50000","3.54441","3793.71"
"42.60000","3.55257","3800.35"
"42.70000","3.56054","3805.09"
"42.80000","3.56890","3810.57"
"42.90000","3.57747","3818.28"
"43.00000","3.58583","3824.13"
"43.10000","3.59440","3830.25"
"43.20000","3.60287","3836.89"
"43.30000","3.61083","3841.18"
"43.40000","3.61889","3846.93"
"43.50000","3.62726","3853.14"
"43.60000","3.63603","3859.18"
"43.70000","3.64429","3864.9"
"43.80000","3.65256","3870.08"
"43.90000","3.66072","3875.71"
"44.00000","3.66889","3881.17"
"44.10000","3.67705","3886.99"
"44.20000","3.68562","3892.17"
"44.30000","3.69439","3898.38"
"44.40000","3.70275","3904.13"
"44.50000","3.71082","3909.04"
"44.60000","3.71888","3915.43"
"44.70000","3.72735","3920.85"
"44.80000","3.73571","3925.12"
"44.90000","3.74408","3931.06"
"45.00000","3.75275","3936.82"
"45.10000","3.76111","3941.97"
"45.20000","3.76948","3947.28"
"45.30000","3.77754","3952.88"
"45.40000","3.78571","3957.88"
"45.50000","3.79407","3962.98"
"45.60000","3.80234","3967.17"
"45.70000","3.81081","3972.9"
"45.80000","3.81927","3978.77"
"45.90000","3.82754","3983.56"
"46.00000","3.83580","3989"
"46.10000","3.84397","3992.91"
"46.20000","3.85233","3996.93"
"46.30000","3.86090","4001.82"
"46.40000","3.86987","4007.69"
"46.50000","3.87804","4011.96"
"46.60000","3.88580","4015.03"
"46.70000","3.89396","3983.56"
"46.80000","3.90223","3981.99"
"46.90000","3.91069","3988.1"
"47.00000","3.91926","3995.71"
"47.10000","3.92773","4001.67"
"47.20000","3.93599","4007.87"
"47.30000","3.94426","4013"
"47.40000","3.95232","4017.79"
"47.50000","3.96058","4022.09"
"47.60000","3.96915","4025.92"
"47.70000","3.97732","4029.68"
"47.80000","3.98588","4033.92"
"47.90000","3.99455","4039.67"
"48.00000","4.00282","4043.72"
"48.10000","4.01068","4048.27"
"48.20000","4.01874","4052.17"
"48.30000","4.02731","4056.54"
"48.40000","4.03618","4061.6"
"48.50000","4.04434","4065.08"
"48.60000","4.05281","4068.29"
"48.70000","4.06108","4071.79"
"48.80000","4.06914","4073.54"
"48.90000","4.07740","4076"
"49.00000","4.08577","4077.61"
"49.10000","4.09424","4080.41"
"49.20000","4.10250","4081.19"
"49.30000","4.11047","4084.18"
"49.40000","4.11893","4085.43"
"49.50000","4.12710","4087.03"
"49.60000","4.13566","4086.88"
"49.70000","4.14413","4088.43"
"49.80000","4.15240","4089.43"
"49.90000","4.16086","4089.5"
"50.00000","4.16933","4089.48"
"50.10000","4.17749","4089.28"
"50.20000","4.18556","4087.09"
"50.30000","4.19382","4085.75"
"50.40000","4.20249","4084.75"
"50.50000","4.21116","4082.88"
"50.60000","4.21962","4080.86"
"50.70000","4.22779","4076.32"
"50.80000","4.23565","4071.43"
"50.90000","4.24371","4065.54"
"51.00000","4.25228","4058.4"
"51.10000","4.26125","4050.25"
"51.20000","4.26962","4038.49"
"51.30000","4.27778","4021.01"
"51.40000","4.28595","3991.99"
"51.50000","4.29411","3885.48"
"51.50600","4.29462","3610.97"
"51.51000","4.29502","3249.45"
"51.51400","4.29542","2831.53"
"51.51800","4.29582","2381.68"