File: Data_Processing/Tensile-Data/Sequence_41.csv
General : Start date,"10/29/2024 10:47 AM"
General : End date,"10/29/2024 10:47 AM"
Specimen notes : Specimen note 1,"Day 2, black, 215, batch 11, seq 41"
Test : Rate 1,"5.00000",mm/min

Time,Extension,Load
(s),(mm),(N)
"0.00000","0.00000","0.59158"
"0.10000","0.00131","1.49655"
"0.20000","0.01078","13.18831"
"0.30000","0.02389","38.50086"
"0.40000","0.03256","54.67516"
"0.50000","0.04082","69.50571"
"0.60000","0.04949","83.31925"
"0.70000","0.05816","97.34748"
"0.80000","0.06673","112.033"
"0.90000","0.07529","125.536"
"1.00000","0.08376","140.716"
"1.10000","0.09213","153.908"
"1.20000","0.10049","167.848"
"1.30000","0.10855","180.806"
"1.40000","0.11672","194.577"
"1.50000","0.12519","209.093"
"1.60000","0.13385","223.355"
"1.70000","0.14232","237.095"
"1.80000","0.15038","250.764"
"1.90000","0.15845","263.144"
"2.00000","0.16671","276.399"
"2.10000","0.17518","289.889"
"2.20000","0.18375","304.02"
"2.30000","0.19211","317.578"
"2.40000","0.20068","331.03"
"2.50000","0.20884","343.374"
"2.60000","0.21661","355.647"
"2.70000","0.22507","368.372"
"2.80000","0.23344","382.185"
"2.90000","0.24180","395.747"
"3.00000","0.25017","408.532"
"3.10000","0.25864","421.563"
"3.20000","0.26670","433.887"
"3.30000","0.27497","446.232"
"3.40000","0.28323","459.065"
"3.50000","0.29180","472.872"
"3.60000","0.30026","485.907"
"3.70000","0.30863","498.406"
"3.80000","0.31700","511.441"
"3.90000","0.32536","523.286"
"4.00000","0.33332","535.657"
"4.10000","0.34159","547.22"
"4.20000","0.35046","561.446"
"4.30000","0.35903","573.854"
"4.40000","0.36729","586.448"
"4.50000","0.37546","598.636"
"4.60000","0.38362","611.193"
"4.70000","0.39168","621.767"
"4.80000","0.39995","634.755"
"4.90000","0.40872","646.707"
"5.00000","0.41718","659.648"
"5.10000","0.42545","671.294"
"5.20000","0.43361","683.347"
"5.30000","0.44168","693.672"
"5.40000","0.44984","704.784"
"5.50000","0.45831","717.404"
"5.60000","0.46698","729.951"
"5.70000","0.47534","741.776"
"5.80000","0.48371","753.082"
"5.90000","0.49177","763.648"
"6.00000","0.49994","774.182"
"6.10000","0.50820","786.37"
"6.20000","0.51667","797.138"
"6.30000","0.52534","808.948"
"6.40000","0.53370","819.837"
"6.50000","0.54197","830.416"
"6.60000","0.55023","841.396"
"6.70000","0.55840","852.529"
"6.80000","0.56666","862.448"
"6.90000","0.57523","873.138"
"7.00000","0.58380","883.516"
"7.10000","0.59216","893.921"
"7.20000","0.60053","904.538"
"7.30000","0.60859","914.915"
"7.40000","0.61666","924.514"
"7.50000","0.62502","934.217"
"7.60000","0.63359","944.654"
"7.70000","0.64175","955.349"
"7.80000","0.65012","965.259"
"7.90000","0.65869","976.541"
"8.00000","0.66685","985.693"
"8.10000","0.67481","995.369"
"8.20000","0.68328","1004.85"
"8.30000","0.69195","1015.35"
"8.40000","0.70021","1026.23"
"8.50000","0.70858","1035.75"
"8.60000","0.71674","1045.35"
"8.70000","0.72481","1054.35"
"8.80000","0.73287","1064.26"
"8.90000","0.74154","1073.67"
"9.00000","0.75031","1083.72"
"9.10000","0.75877","1092.36"
"9.20000","0.76664","1102.78"
"9.30000","0.77500","1112.32"
"9.40000","0.78357","1122.61"
"9.50000","0.79183","1131.92"
"9.60000","0.80030","1139.67"
"9.70000","0.80887","1150.13"
"9.80000","0.81713","1159.56"
"9.90000","0.82550","1169.22"
"10.00000","0.83366","1177.88"
"10.10000","0.84163","1186"
"10.20000","0.85009","1195.67"
"10.30000","0.85856","1204.46"
"10.40000","0.86703","1214.03"
"10.50000","0.87549","1223.48"
"10.60000","0.88376","1232.98"
"10.70000","0.89202","1242.06"
"10.80000","0.90019","1251.17"
"10.90000","0.90835","1259.77"
"11.00000","0.91672","1268.31"
"11.10000","0.92549","1277.42"
"11.20000","0.93375","1284.14"
"11.30000","0.94182","1292.97"
"11.40000","0.94988","1300.48"
"11.50000","0.95825","1307.73"
"11.60000","0.96651","1315.16"
"11.70000","0.97518","1323.88"
"11.80000","0.98354","1333.01"
"11.90000","0.99201","1340.81"
"12.00000","1.00028","1348.07"
"12.10000","1.00844","1355.78"
"12.20000","1.01660","1363.42"
"12.30000","1.02507","1371.22"
"12.40000","1.03344","1379.32"
"12.50000","1.04200","1386.23"
"12.60000","1.05067","1395.25"
"12.70000","1.05884","1401.67"
"12.80000","1.06680","1410.1"
"12.90000","1.07506","1416.5"
"13.00000","1.08353","1425.09"
"13.10000","1.09220","1432.81"
"13.20000","1.10036","1439.94"
"13.30000","1.10863","1447.22"
"13.40000","1.11699","1455.37"
"13.50000","1.12496","1462.72"
"13.60000","1.13312","1470.66"
"13.70000","1.14169","1478.42"
"13.80000","1.15036","1486.8"
"13.90000","1.15882","1494.34"
"14.00000","1.16689","1502.4"
"14.10000","1.17505","1509.38"
"14.20000","1.18312","1516.36"
"14.30000","1.19138","1524.44"
"14.40000","1.19995","1532.8"
"14.50000","1.20852","1541.16"
"14.60000","1.21678","1548.51"
"14.70000","1.22515","1556.29"
"14.80000","1.23341","1564.04"
"14.90000","1.24168","1571.76"
"15.00000","1.25004","1580.2"
"15.10000","1.25861","1589.09"
"15.20000","1.26718","1595.83"
"15.30000","1.27564","1604.73"
"15.40000","1.28391","1611.28"
"15.50000","1.29187","1618.76"
"15.60000","1.29983","1626.12"
"15.70000","1.30810","1633.37"
"15.80000","1.31697","1642.25"
"15.90000","1.32564","1649.32"
"16.00000","1.33380","1657.32"
"16.10000","1.34187","1664.65"
"16.20000","1.35013","1673.51"
"16.30000","1.35840","1680.24"
"16.40000","1.36666","1688.25"
"16.50000","1.37523","1695.83"
"16.60000","1.38380","1703.54"
"16.70000","1.39206","1711.31"
"16.80000","1.40023","1719.16"
"16.90000","1.40809","1726.15"
"17.00000","1.41645","1733.33"
"17.10000","1.42512","1741.49"
"17.20000","1.43339","1749.86"
"17.30000","1.44185","1757.9"
"17.40000","1.45062","1764.89"
"17.50000","1.45869","1772.32"
"17.60000","1.46645","1780.24"
"17.70000","1.47471","1788.03"
"17.80000","1.48348","1795.55"
"17.90000","1.49205","1804.04"
"18.00000","1.50041","1812.28"
"18.10000","1.50858","1820.52"
"18.20000","1.51694","1828.89"
"18.30000","1.52501","1836.22"
"18.40000","1.53327","1843.08"
"18.50000","1.54204","1851.05"
"18.60000","1.55061","1859.14"
"18.70000","1.55867","1866.03"
"18.80000","1.56694","1873.46"
"18.90000","1.57520","1882.28"
"19.00000","1.58337","1888.89"
"19.10000","1.59163","1896.61"
"19.20000","1.60020","1904.2"
"19.30000","1.60877","1911.5"
"19.40000","1.61713","1919.6"
"19.50000","1.62520","1926.69"
"19.60000","1.63326","1933.38"
"19.70000","1.64153","1941"
"19.80000","1.64979","1949.13"
"19.90000","1.65826","1956.85"
"20.00000","1.66713","1965.23"
"20.10000","1.67559","1972.64"
"20.20000","1.68376","1979.51"
"20.30000","1.69152","1987.06"
"20.40000","1.69978","1994.49"
"20.50000","1.70875","2003.5"
"20.60000","1.71732","2011.07"
"20.70000","1.72549","2017.52"
"20.80000","1.73355","2025.36"
"20.90000","1.74171","2033.81"
"21.00000","1.74998","2041.23"
"21.10000","1.75845","2049.47"
"21.20000","1.76701","2056.62"
"21.30000","1.77548","2064.45"
"21.40000","1.78395","2072.37"
"21.50000","1.79211","2079.74"
"21.60000","1.80007","2087.51"
"21.70000","1.80854","2095.24"
"21.80000","1.81681","2102.41"
"21.90000","1.82507","2109.97"
"22.00000","1.83354","2118.4"
"22.10000","1.84210","2125.75"
"22.20000","1.85047","2132.77"
"22.30000","1.85833","2140.18"
"22.40000","1.86650","2147.61"
"22.50000","1.87486","2155.55"
"22.60000","1.88363","2164.1"
"22.70000","1.89200","2171.27"
"22.80000","1.90026","2179.46"
"22.90000","1.90853","2186.7"
"23.00000","1.91649","2193.97"
"23.10000","1.92465","2201.68"
"23.20000","1.93342","2210.12"
"23.30000","1.94209","2217.71"
"23.40000","1.95046","2224.94"
"23.50000","1.95852","2232.63"
"23.60000","1.96689","2239.96"
"23.70000","1.97515","2247.48"
"23.80000","1.98352","2254.76"
"23.90000","1.99219","2262.9"
"24.00000","2.00065","2271.58"
"24.10000","2.00882","2278.84"
"24.20000","2.01708","2285.38"
"24.30000","2.02515","2293.33"
"24.40000","2.03331","2300.82"
"24.50000","2.04157","2308.66"
"24.60000","2.05014","2315.9"
"24.70000","2.05861","2324.08"
"24.80000","2.06708","2331.61"
"24.90000","2.07534","2338.39"
"25.00000","2.08340","2346.2"
"25.10000","2.09147","2352.64"
"25.20000","2.09973","2360.5"
"25.30000","2.10840","2369.08"
"25.40000","2.11677","2376.18"
"25.50000","2.12533","2383.97"
"25.60000","2.13350","2391.78"
"25.70000","2.14166","2399.47"
"25.80000","2.15013","2406.73"
"25.90000","2.15850","2414.78"
"26.00000","2.16706","2423.01"
"26.10000","2.17543","2429.64"
"26.20000","2.18390","2436.7"
"26.30000","2.19216","2445.04"
"26.40000","2.20012","2452.82"
"26.50000","2.20839","2459.89"
"26.60000","2.21675","2467.73"
"26.70000","2.22512","2474.95"
"26.80000","2.23339","2483.49"
"26.90000","2.24185","2492.08"
"27.00000","2.25042","2498.94"
"27.10000","2.25838","2506.49"
"27.20000","2.26645","2513.95"
"27.30000","2.27501","2521.71"
"27.40000","2.28358","2530.29"
"27.50000","2.29195","2536.71"
"27.60000","2.30041","2544.83"
"27.70000","2.30858","2552"
"27.80000","2.31654","2558.56"
"27.90000","2.32470","2565.99"
"28.00000","2.33357","2574.53"
"28.10000","2.34204","2581.55"
"28.20000","2.35031","2588.98"
"28.30000","2.35847","2597.2"
"28.40000","2.36684","2604"
"28.50000","2.37510","2612.12"
"28.60000","2.38357","2618.8"
"28.70000","2.39203","2627.34"
"28.80000","2.40050","2635.2"
"28.90000","2.40867","2641.39"
"29.00000","2.41703","2649.06"
"29.10000","2.42520","2657.3"
"29.20000","2.43336","2665.3"
"29.30000","2.44173","2673.57"
"29.40000","2.45019","2681.11"
"29.50000","2.45866","2688.53"
"29.60000","2.46713","2696.83"
"29.70000","2.47539","2702.95"
"29.80000","2.48335","2711.34"
"29.90000","2.49142","2717.53"
"30.00000","2.49998","2725.89"
"30.10000","2.50865","2733.79"
"30.20000","2.51702","2741.16"
"30.30000","2.52528","2747.96"
"30.40000","2.53345","2755.85"
"30.50000","2.54151","2763.37"
"30.60000","2.54988","2769.64"
"30.70000","2.55834","2777.53"
"30.80000","2.56691","2786.1"
"30.90000","2.57518","2793.65"
"31.00000","2.58364","2801.94"
"31.10000","2.59201","2807.83"
"31.20000","2.60007","2816.02"
"31.30000","2.60844","2823.57"
"31.40000","2.61680","2831.82"
"31.50000","2.62527","2839.59"
"31.60000","2.63394","2847.11"
"31.70000","2.64241","2854.32"
"31.80000","2.65047","2861.34"
"31.90000","2.65833","2868.84"
"32.00000","2.66680","2876.25"
"32.10000","2.67557","2883.13"
"32.20000","2.68383","2890.53"
"32.30000","2.69210","2897.85"
"32.40000","2.70026","2904.89"
"32.50000","2.70853","2913.33"
"32.60000","2.71669","2920.72"
"32.70000","2.72496","2927.79"
"32.80000","2.73372","2935.53"
"32.90000","2.74209","2942.56"
"33.00000","2.75005","2950.22"
"33.10000","2.75822","2957.53"
"33.20000","2.76668","2964.58"
"33.30000","2.77485","2971.92"
"33.40000","2.78321","2979.07"
"33.50000","2.79178","2986.52"
"33.60000","2.80035","2995.46"
"33.70000","2.80872","3001.01"
"33.80000","2.81688","3009.22"
"33.90000","2.82494","3016.25"
"34.00000","2.83331","3024.51"
"34.10000","2.84157","3031.38"
"34.20000","2.85024","3039.49"
"34.30000","2.85881","3046.18"
"34.40000","2.86697","3053.17"
"34.50000","2.87514","3060.25"
"34.60000","2.88320","3067.42"
"34.70000","2.89157","3074.99"
"34.80000","2.90034","3083.3"
"34.90000","2.90901","3090.32"
"35.00000","2.91737","3096.97"
"35.10000","2.92543","3103.67"
"35.20000","2.93330","3111.71"
"35.30000","2.94176","3119.12"
"35.40000","2.95013","3126.77"
"35.50000","2.95870","3134.17"
"35.60000","2.96706","3140.82"
"35.70000","2.97543","3147.84"
"35.80000","2.98379","3155.15"
"35.90000","2.99176","3162.57"
"36.00000","2.99982","3168.04"
"36.10000","3.00839","3176.07"
"36.20000","3.01665","3183.35"
"36.30000","3.02492","3191.07"
"36.40000","3.03338","3197.47"
"36.50000","3.04185","3205.18"
"36.60000","3.04991","3212.68"
"36.70000","3.05808","3219.87"
"36.80000","3.06675","3226.73"
"36.90000","3.07552","3233.87"
"37.00000","3.08368","3240.81"
"37.10000","3.09195","3247.95"
"37.20000","3.10041","3255.03"
"37.30000","3.10848","3261.18"
"37.40000","3.11654","3269.58"
"37.50000","3.12511","3276.22"
"37.60000","3.13408","3283.8"
"37.70000","3.14214","3291.49"
"37.80000","3.15010","3297.76"
"37.90000","3.15847","3304.61"
"38.00000","3.16684","3311.87"
"38.10000","3.17530","3319.95"
"38.20000","3.18367","3326.55"
"38.30000","3.19203","3332.51"
"38.40000","3.20040","3340.18"
"38.50000","3.20866","3346.97"
"38.60000","3.21663","3353.27"
"38.70000","3.22509","3360.99"
"38.80000","3.23326","3367.81"
"38.90000","3.24162","3374.06"
"39.00000","3.25029","3380.35"
"39.10000","3.25866","3387.94"
"39.20000","3.26692","3394.33"
"39.30000","3.27509","3401.45"
"39.40000","3.28325","3407.7"
"39.50000","3.29162","3414.76"
"39.60000","3.30029","3421.65"
"39.70000","3.30885","3428.18"
"39.80000","3.31702","3435.47"
"39.90000","3.32518","3442.41"
"40.00000","3.33335","3448.97"
"40.10000","3.34171","3456.44"
"40.20000","3.35018","3463.45"
"40.30000","3.35875","3470.26"
"40.40000","3.36711","3477.01"
"40.50000","3.37548","3483.55"
"40.60000","3.38354","3490.2"
"40.70000","3.39171","3496.07"
"40.80000","3.40007","3502.55"
"40.90000","3.40834","3510.09"
"41.00000","3.41670","3516.67"
"41.10000","3.42527","3523.35"
"41.20000","3.43394","3530.37"
"41.30000","3.44210","3537.24"
"41.40000","3.44986","3543.49"
"41.50000","3.45823","3549.96"
"41.60000","3.46690","3556.23"
"41.70000","3.47536","3563.8"
"41.80000","3.48363","3569.8"
"41.90000","3.49210","3575.63"
"42.00000","3.50026","3582.15"
"42.10000","3.50812","3588.19"
"42.20000","3.51669","3594.81"
"42.30000","3.52556","3601.54"
"42.40000","3.53403","3609.28"
"42.50000","3.54209","3614.56"
"42.60000","3.55025","3621.32"
"42.70000","3.55862","3627.27"
"42.80000","3.56668","3633.7"
"42.90000","3.57505","3639.58"
"43.00000","3.58372","3645.97"
"43.10000","3.59208","3652.55"
"43.20000","3.60035","3658.27"
"43.30000","3.60861","3664.33"
"43.40000","3.61668","3670.05"
"43.50000","3.62484","3675.69"
"43.60000","3.63331","3681.57"
"43.70000","3.64218","3689.04"
"43.80000","3.65064","3695.23"
"43.90000","3.65891","3701.18"
"44.00000","3.66707","3707.05"
"44.10000","3.67484","3712.42"
"44.20000","3.68310","3718.3"
"44.30000","3.69167","3724.38"
"44.40000","3.70044","3730.34"
"44.50000","3.70890","3735.66"
"44.60000","3.71717","3742.19"
"44.70000","3.72513","3748.45"
"44.80000","3.73330","3754.33"
"44.90000","3.74156","3759.12"
"45.00000","3.75003","3764.81"
"45.10000","3.75870","3771.67"
"45.20000","3.76696","3776.79"
"45.30000","3.77543","3782.66"
"45.40000","3.78359","3788.34"
"45.50000","3.79166","3792.56"
"45.60000","3.80002","3798.24"
"45.70000","3.80849","3803.82"
"45.80000","3.81675","3808.83"
"45.90000","3.82542","3816.08"
"46.00000","3.83379","3819.73"
"46.10000","3.84185","3825.77"
"46.20000","3.84991","3830.22"
"46.30000","3.85818","3835.42"
"46.40000","3.86695","3840.23"
"46.50000","3.87541","3844.91"
"46.60000","3.88358","3849.95"
"46.70000","3.89184","3855.47"
"46.80000","3.90011","3860.07"
"46.90000","3.90817","3864.12"
"47.00000","3.91664","3869.48"
"47.10000","3.92541","3874.03"
"47.20000","3.93377","3879.14"
"47.30000","3.94174","3883.22"
"47.40000","3.94990","3886.54"
"47.50000","3.95827","3891.75"
"47.60000","3.96673","3896.21"
"47.70000","3.97530","3900.31"
"47.80000","3.98387","3904.25"
"47.90000","3.99223","3908.45"
"48.00000","4.00040","3912.65"
"48.10000","4.00856","3916.37"
"48.20000","4.01673","3920.09"
"48.30000","4.02519","3923.28"
"48.40000","4.03346","3926.87"
"48.50000","4.04193","3930.21"
"48.60000","4.05049","3933.27"
"48.70000","4.05876","3936.55"
"48.80000","4.06692","3938.25"
"48.90000","4.07499","3942.2"
"49.00000","4.08335","3943.79"
"49.10000","4.09192","3946.41"
"49.20000","4.10069","3948.62"
"49.30000","4.10885","3950.75"
"49.40000","4.11671","3951.76"
"49.50000","4.12488","3953.26"
"49.60000","4.13314","3953.37"
"49.70000","4.14171","3953.58"
"49.80000","4.15038","3955.44"
"49.90000","4.15875","3954.66"
"50.00000","4.16711","3954.36"
"50.10000","4.17528","3952.5"
"50.20000","4.18344","3949.77"
"50.30000","4.19160","3946.2"
"50.40000","4.20007","3942.7"
"50.50000","4.20834","3938.35"
"50.60000","4.21680","3931.91"
"50.70000","4.22547","3922.93"
"50.80000","4.23384","3910.31"
"50.90000","4.24170","3890.6"
"51.00000","4.24996","3860.47"
"51.10000","4.25853","3789.02"
"51.12200","4.26055","3465.29"
"51.12600","4.26095","3115.35"
"51.13000","4.26135","2709.77"
"51.13400","4.26176","2275.12"