File: Data_Processing/Tensile-Data/Sequence_28.csv
General : Start date,"10/29/2024 10:15 AM"
General : End date,"10/29/2024 10:15 AM"
Specimen notes : Specimen note 1,"Day 2, black, 215, batch 10, seq 28"
Test : Rate 1,"5.00000",mm/min

Time,Extension,Load
(s),(mm),(N)
"0.00000","0.00000","-0.53598"
"0.10000","0.00141","-0.73970"
"0.20000","0.00947","9.36620"
"0.30000","0.02308","35.51634"
"0.40000","0.03256","54.78948"
"0.50000","0.04082","70.77495"
"0.60000","0.04929","86.16260"
"0.70000","0.05765","100.934"
"0.80000","0.06632","115.466"
"0.90000","0.07509","130.096"
"1.00000","0.08376","143.656"
"1.10000","0.09202","157.749"
"1.20000","0.10029","171.43"
"1.30000","0.10825","184.486"
"1.40000","0.11642","198.649"
"1.50000","0.12488","211.556"
"1.60000","0.13355","227.111"
"1.70000","0.14222","241.261"
"1.80000","0.15028","254.504"
"1.90000","0.15855","268.898"
"2.00000","0.16681","283.862"
"2.10000","0.17518","297.434"
"2.20000","0.18355","312.137"
"2.30000","0.19201","326.237"
"2.40000","0.20058","342.365"
"2.50000","0.20884","355.369"
"2.60000","0.21701","370.188"
"2.70000","0.22497","384.176"
"2.80000","0.23334","396.313"
"2.90000","0.24190","411.655"
"3.00000","0.25017","424.439"
"3.10000","0.25843","439.136"
"3.20000","0.26700","452.573"
"3.30000","0.27517","466.1"
"3.40000","0.28323","478.165"
"3.50000","0.29160","491.895"
"3.60000","0.30016","505.769"
"3.70000","0.30853","520.508"
"3.80000","0.31690","534.456"
"3.90000","0.32516","547.132"
"4.00000","0.33322","560.365"
"4.10000","0.34129","573.849"
"4.20000","0.34985","587.006"
"4.30000","0.35852","601.481"
"4.40000","0.36699","615.229"
"4.50000","0.37485","628.907"
"4.60000","0.38332","641.472"
"4.70000","0.39189","655.809"
"4.80000","0.40025","669.211"
"4.90000","0.40852","681.366"
"5.00000","0.41708","694.765"
"5.10000","0.42575","709.497"
"5.20000","0.43392","722.838"
"5.30000","0.44198","734.329"
"5.40000","0.45014","747.115"
"5.50000","0.45851","760.025"
"5.60000","0.46667","773.182"
"5.70000","0.47524","787.314"
"5.80000","0.48381","801.294"
"5.90000","0.49207","814.926"
"6.00000","0.50024","826.725"
"6.10000","0.50840","840.66"
"6.20000","0.51657","852.391"
"6.30000","0.52503","866.687"
"6.40000","0.53350","879.649"
"6.50000","0.54207","891.789"
"6.60000","0.55033","904.792"
"6.70000","0.55830","916.928"
"6.80000","0.56636","929.733"
"6.90000","0.57473","942.188"
"7.00000","0.58339","954.249"
"7.10000","0.59196","968.488"
"7.20000","0.60013","980.844"
"7.30000","0.60839","994.83"
"7.40000","0.61676","1006.12"
"7.50000","0.62502","1018.93"
"7.60000","0.63329","1030.9"
"7.70000","0.64165","1044.26"
"7.80000","0.65022","1057.87"
"7.90000","0.65879","1070.12"
"8.00000","0.66715","1082.74"
"8.10000","0.67522","1094.97"
"8.20000","0.68328","1106.98"
"8.30000","0.69165","1118.68"
"8.40000","0.70031","1131.86"
"8.50000","0.70858","1144.08"
"8.60000","0.71705","1155.13"
"8.70000","0.72541","1168.05"
"8.80000","0.73337","1180.12"
"8.90000","0.74134","1191.9"
"9.00000","0.75001","1204.66"
"9.10000","0.75877","1217.2"
"9.20000","0.76704","1229.25"
"9.30000","0.77520","1241.49"
"9.40000","0.78337","1254.08"
"9.50000","0.79133","1265.74"
"9.60000","0.79950","1276.83"
"9.70000","0.80816","1289.94"
"9.80000","0.81693","1302.61"
"9.90000","0.82520","1313.35"
"10.00000","0.83346","1325.39"
"10.10000","0.84153","1337.09"
"10.20000","0.84989","1348.81"
"10.30000","0.85836","1361.3"
"10.40000","0.86672","1373.27"
"10.50000","0.87539","1384.7"
"10.60000","0.88396","1397.02"
"10.70000","0.89212","1408.04"
"10.80000","0.90029","1418.95"
"10.90000","0.90825","1430.93"
"11.00000","0.91642","1441.56"
"11.10000","0.92508","1453.57"
"11.20000","0.93375","1466.21"
"11.30000","0.94202","1477.18"
"11.40000","0.95028","1488.46"
"11.50000","0.95825","1498.72"
"11.60000","0.96651","1510.3"
"11.70000","0.97498","1521.5"
"11.80000","0.98354","1533.22"
"11.90000","0.99191","1544.31"
"12.00000","1.00038","1555.5"
"12.10000","1.00854","1566.64"
"12.20000","1.01640","1577.34"
"12.30000","1.02467","1588.6"
"12.40000","1.03354","1600.72"
"12.50000","1.04190","1611.87"
"12.60000","1.05027","1623.1"
"12.70000","1.05884","1634.17"
"12.80000","1.06710","1644.69"
"12.90000","1.07486","1654.33"
"13.00000","1.08313","1664.46"
"13.10000","1.09160","1675.25"
"13.20000","1.10026","1685.25"
"13.30000","1.10873","1696.37"
"13.40000","1.11689","1706.25"
"13.50000","1.12516","1716.28"
"13.60000","1.13332","1727.09"
"13.70000","1.14159","1736.99"
"13.80000","1.15016","1746.17"
"13.90000","1.15882","1756.77"
"14.00000","1.16709","1766.3"
"14.10000","1.17515","1777.02"
"14.20000","1.18352","1786.39"
"14.30000","1.19168","1796.86"
"14.40000","1.19995","1807.14"
"14.50000","1.20841","1817.3"
"14.60000","1.21698","1827.98"
"14.70000","1.22535","1838.07"
"14.80000","1.23341","1848.48"
"14.90000","1.24148","1858.73"
"15.00000","1.24994","1868.99"
"15.10000","1.25831","1879.3"
"15.20000","1.26677","1889.34"
"15.30000","1.27534","1900.16"
"15.40000","1.28371","1909"
"15.50000","1.29187","1919.22"
"15.60000","1.29983","1928.38"
"15.70000","1.30800","1937.44"
"15.80000","1.31667","1948.36"
"15.90000","1.32554","1958.6"
"16.00000","1.33380","1968.72"
"16.10000","1.34207","1978.39"
"16.20000","1.35023","1987.68"
"16.30000","1.35830","1998.1"
"16.40000","1.36666","2006.43"
"16.50000","1.37503","2016.56"
"16.60000","1.38349","2027.07"
"16.70000","1.39196","2036.37"
"16.80000","1.40053","2047.16"
"16.90000","1.40849","2056.82"
"17.00000","1.41676","2065.69"
"17.10000","1.42502","2075.6"
"17.20000","1.43339","2085.74"
"17.30000","1.44175","2095.62"
"17.40000","1.45032","2105.29"
"17.50000","1.45879","2114.97"
"17.60000","1.46675","2124.88"
"17.70000","1.47481","2134.8"
"17.80000","1.48308","2143.91"
"17.90000","1.49175","2154.16"
"18.00000","1.50021","2164.06"
"18.10000","1.50868","2173.56"
"18.20000","1.51705","2183.93"
"18.30000","1.52511","2193.21"
"18.40000","1.53317","2201.95"
"18.50000","1.54164","2212.07"
"18.60000","1.55041","2221.74"
"18.70000","1.55867","2231.25"
"18.80000","1.56684","2240.53"
"18.90000","1.57520","2250.55"
"19.00000","1.58347","2259.16"
"19.10000","1.59173","2268.87"
"19.20000","1.60010","2277.54"
"19.30000","1.60867","2288.08"
"19.40000","1.61703","2298.26"
"19.50000","1.62540","2306.79"
"19.60000","1.63346","2315.94"
"19.70000","1.64163","2324.7"
"19.80000","1.64979","2332.93"
"19.90000","1.65826","2342.22"
"20.00000","1.66682","2352.19"
"20.10000","1.67539","2361.65"
"20.20000","1.68376","2370.15"
"20.30000","1.69182","2379.75"
"20.40000","1.69978","2387.65"
"20.50000","1.70785","2396.74"
"20.60000","1.71652","2406.52"
"20.70000","1.72508","2415.63"
"20.80000","1.73375","2424.27"
"20.90000","1.74192","2433.36"
"21.00000","1.74998","2442.19"
"21.10000","1.75824","2450.99"
"21.20000","1.76661","2460.62"
"21.30000","1.77528","2469.14"
"21.40000","1.78374","2478.41"
"21.50000","1.79211","2488.14"
"21.60000","1.80058","2496.46"
"21.70000","1.80854","2505.42"
"21.80000","1.81650","2512.73"
"21.90000","1.82497","2522.11"
"22.00000","1.83354","2530.79"
"22.10000","1.84200","2539.86"
"22.20000","1.85047","2547.53"
"22.30000","1.85894","2556.08"
"22.40000","1.86670","2564.83"
"22.50000","1.87466","2572.62"
"22.60000","1.88313","2582.22"
"22.70000","1.89190","2590.49"
"22.80000","1.90016","2599.04"
"22.90000","1.90863","2607.62"
"23.00000","1.91699","2616.2"
"23.10000","1.92476","2625.24"
"23.20000","1.93292","2632.72"
"23.30000","1.94169","2641.16"
"23.40000","1.95056","2650.71"
"23.50000","1.95882","2659.56"
"23.60000","1.96679","2667.92"
"23.70000","1.97515","2676.43"
"23.80000","1.98342","2685.35"
"23.90000","1.99168","2692.89"
"24.00000","2.00005","2701.25"
"24.10000","2.00862","2709.78"
"24.20000","2.01698","2717.49"
"24.30000","2.02535","2726.75"
"24.40000","2.03341","2734.63"
"24.50000","2.04168","2743.37"
"24.60000","2.05004","2751.65"
"24.70000","2.05841","2759.77"
"24.80000","2.06697","2768.07"
"24.90000","2.07544","2777.06"
"25.00000","2.08361","2785.77"
"25.10000","2.09167","2793.19"
"25.20000","2.09973","2800.89"
"25.30000","2.10830","2809.08"
"25.40000","2.11697","2818.01"
"25.50000","2.12533","2826.02"
"25.60000","2.13360","2834.31"
"25.70000","2.14166","2842.76"
"25.80000","2.14993","2850.44"
"25.90000","2.15809","2859.57"
"26.00000","2.16666","2867.36"
"26.10000","2.17523","2876.31"
"26.20000","2.18339","2884.27"
"26.30000","2.19176","2892.15"
"26.40000","2.20012","2900.82"
"26.50000","2.20819","2909.17"
"26.60000","2.21655","2917.96"
"26.70000","2.22512","2926.28"
"26.80000","2.23349","2934.13"
"26.90000","2.24195","2942.75"
"27.00000","2.25062","2950.66"
"27.10000","2.25879","2958.8"
"27.20000","2.26665","2965.41"
"27.30000","2.27491","2973.92"
"27.40000","2.28358","2981.68"
"27.50000","2.29215","2989.68"
"27.60000","2.30041","2997.3"
"27.70000","2.30848","3006.12"
"27.80000","2.31684","3014.77"
"27.90000","2.32511","3022.34"
"28.00000","2.33337","3030.82"
"28.10000","2.34204","3039.12"
"28.20000","2.35051","3047.95"
"28.30000","2.35857","3055.29"
"28.40000","2.36663","3063.72"
"28.50000","2.37490","3071.42"
"28.60000","2.38316","3080.3"
"28.70000","2.39153","3087.6"
"28.80000","2.40010","3095.43"
"28.90000","2.40846","3103.88"
"29.00000","2.41673","3111.36"
"29.10000","2.42509","3119.59"
"29.20000","2.43326","3127.16"
"29.30000","2.44173","3134.89"
"29.40000","2.45009","3143.55"
"29.50000","2.45856","3151.22"
"29.60000","2.46713","3159.9"
"29.70000","2.47549","3167.46"
"29.80000","2.48345","3174.78"
"29.90000","2.49142","3182.55"
"30.00000","2.49968","3190.48"
"30.10000","2.50845","3199.44"
"30.20000","2.51712","3208.1"
"30.30000","2.52559","3215.69"
"30.40000","2.53365","3222.72"
"30.50000","2.54181","3231.3"
"30.60000","2.54998","3238.62"
"30.70000","2.55834","3246.18"
"30.80000","2.56681","3254.06"
"30.90000","2.57528","3261.36"
"31.00000","2.58354","3269.96"
"31.10000","2.59201","3277.05"
"31.20000","2.60017","3285.06"
"31.30000","2.60814","3291.58"
"31.40000","2.61660","3299.81"
"31.50000","2.62497","3308.55"
"31.60000","2.63313","3316.16"
"31.70000","2.64160","3324.35"
"31.80000","2.65027","3332.11"
"31.90000","2.65853","3339.77"
"32.00000","2.66639","3347.13"
"32.10000","2.67486","3353.78"
"32.20000","2.68363","3362.77"
"32.30000","2.69200","3369.98"
"32.40000","2.70036","3377.88"
"32.50000","2.70883","3384.85"
"32.60000","2.71689","3392.44"
"32.70000","2.72496","3400.18"
"32.80000","2.73332","3407.28"
"32.90000","2.74219","3415.4"
"33.00000","2.75036","3422.75"
"33.10000","2.75842","3430.53"
"33.20000","2.76689","3438.22"
"33.30000","2.77505","3445.38"
"33.40000","2.78342","3452.95"
"33.50000","2.79168","3461.24"
"33.60000","2.80025","3469.3"
"33.70000","2.80882","3476.92"
"33.80000","2.81708","3484.06"
"33.90000","2.82515","3491.61"
"34.00000","2.83321","3498.7"
"34.10000","2.84157","3506.43"
"34.20000","2.84984","3513.56"
"34.30000","2.85851","3521.12"
"34.40000","2.86718","3528.96"
"34.50000","2.87534","3536.37"
"34.60000","2.88350","3543.36"
"34.70000","2.89137","3550.39"
"34.80000","2.89973","3558.04"
"34.90000","2.90870","3565.11"
"35.00000","2.91717","3573.37"
"35.10000","2.92543","3579.21"
"35.20000","2.93350","3587.67"
"35.30000","2.94156","3593.84"
"35.40000","2.95003","3601.1"
"35.50000","2.95829","3608.1"
"35.60000","2.96696","3615.82"
"35.70000","2.97533","3622.91"
"35.80000","2.98359","3629.75"
"35.90000","2.99196","3637.63"
"36.00000","3.00002","3643.91"
"36.10000","3.00819","3651.47"
"36.20000","3.01665","3658.09"
"36.30000","3.02502","3666.17"
"36.40000","3.03359","3673.72"
"36.50000","3.04225","3680.45"
"36.60000","3.05052","3688.44"
"36.70000","3.05828","3694.62"
"36.80000","3.06634","3701.39"
"36.90000","3.07501","3708.71"
"37.00000","3.08368","3716.2"
"37.10000","3.09184","3722.93"
"37.20000","3.10031","3729.53"
"37.30000","3.10858","3737.38"
"37.40000","3.11644","3743.29"
"37.50000","3.12480","3750.29"
"37.60000","3.13367","3757.44"
"37.70000","3.14234","3764.61"
"37.80000","3.15041","3770.94"
"37.90000","3.15847","3777.15"
"38.00000","3.16684","3784.32"
"38.10000","3.17510","3790.58"
"38.20000","3.18337","3797.23"
"38.30000","3.19193","3803.78"
"38.40000","3.20030","3810.83"
"38.50000","3.20866","3817.49"
"38.60000","3.21693","3824.79"
"38.70000","3.22489","3831.2"
"38.80000","3.23316","3837.99"
"38.90000","3.24162","3844.42"
"39.00000","3.25039","3851.48"
"39.10000","3.25896","3857.72"
"39.20000","3.26723","3864.82"
"39.30000","3.27529","3870.56"
"39.40000","3.28335","3827.41"
"39.50000","3.29152","3823.24"
"39.60000","3.29998","3832.59"
"39.70000","3.30865","3842.65"
"39.80000","3.31732","3850.98"
"39.90000","3.32538","3859.93"
"40.00000","3.33345","3867.66"
"40.10000","3.34161","3874.67"
"40.20000","3.35008","3881.93"
"40.30000","3.35844","3887.28"
"40.40000","3.36701","3893.75"
"40.50000","3.37528","3902.35"
"40.60000","3.38364","3910.02"
"40.70000","3.39191","3917.04"
"40.80000","3.39987","3924.11"
"40.90000","3.40803","3931.46"
"41.00000","3.41660","3939.02"
"41.10000","3.42517","3945.38"
"41.20000","3.43384","3952.8"
"41.30000","3.44220","3958.69"
"41.40000","3.45027","3964.44"
"41.50000","3.45823","3970.25"
"41.60000","3.46649","3977.71"
"41.70000","3.47506","3984.36"
"41.80000","3.48353","3991.17"
"41.90000","3.49200","3998.38"
"42.00000","3.50006","4003.93"
"42.10000","3.50842","4010.05"
"42.20000","3.51649","4015.42"
"42.30000","3.52475","4021.69"
"42.40000","3.53372","4027.77"
"42.50000","3.54229","4034.37"
"42.60000","3.55015","4040.18"
"42.70000","3.55822","4045"
"42.80000","3.56678","4050.89"
"42.90000","3.57505","4056.29"
"43.00000","3.58342","4061.65"
"43.10000","3.59188","4068.2"
"43.20000","3.60035","4073.79"
"43.30000","3.60871","4079.01"
"43.40000","3.61688","4083.43"
"43.50000","3.62514","4088.38"
"43.60000","3.63341","4093.46"
"43.70000","3.64167","4098.5"
"43.80000","3.65024","4104.39"
"43.90000","3.65871","4108.56"
"44.00000","3.66717","4114.04"
"44.10000","3.67534","4118.51"
"44.20000","3.68330","4122.66"
"44.30000","3.69157","4125.76"
"44.40000","3.70003","4130.38"
"44.50000","3.70880","4134.42"
"44.60000","3.71717","4138.52"
"44.70000","3.72523","4142.08"
"44.80000","3.73319","4144.32"
"44.90000","3.74146","4147.02"
"45.00000","3.74983","4150.97"
"45.10000","3.75849","4155.12"
"45.20000","3.76696","4156.83"
"45.30000","3.77523","4160.16"
"45.40000","3.78369","4162.03"
"45.50000","3.79176","4163.64"
"45.60000","3.79992","4165.18"
"45.70000","3.80839","4166.03"
"45.80000","3.81655","4167.89"
"45.90000","3.82512","4169.66"
"46.00000","3.83379","4169.52"
"46.10000","3.84225","4169.45"
"46.20000","3.85012","4168.46"
"46.30000","3.85798","4167.73"
"46.40000","3.86644","4166.38"
"46.50000","3.87531","4166"
"46.60000","3.88368","4164.3"
"46.70000","3.89205","4161.77"
"46.80000","3.90031","4158.37"
"46.90000","3.90847","4154.74"
"47.00000","3.91654","4150.62"
"47.10000","3.92490","4144.94"
"47.20000","3.93357","4140.06"
"47.30000","3.94204","4133.93"
"47.40000","3.95000","4125.96"
"47.50000","3.95827","4117.36"
"47.60000","3.96653","4108.76"
"47.70000","3.97490","4097.64"
"47.80000","3.98336","4085.29"
"47.90000","3.99183","4071.08"
"48.00000","4.00020","4053.97"
"48.10000","4.00886","4031.97"
"48.20000","4.01693","4001.96"
"48.30000","4.02489","3956.79"
"48.39400","4.03285","3610.87"
"48.39800","4.03326","3267.34"
"48.40200","4.03366","2858.08"
"48.40600","4.03406","2414.84"
"48.40800","4.03437","2196.41"