File: Data_Processing/Tensile-Data/Sequence_12.csv
General : Start date,"10/22/2024 9:43 AM"
General : End date,"10/22/2024 9:44 AM"
Specimen notes : Specimen note 1,"blue, 200, batch 8, seq 12"
Test : Rate 1,"5.00000",mm/min

Time,Extension,Load
(s),(mm),(N)
"0.00000","0.00000","0.39272"
"0.10000","0.00232","0.27833"
"0.20000","0.01411","18.46550"
"0.30000","0.02560","42.70384"
"0.40000","0.03306","56.22356"
"0.50000","0.04122","70.66470"
"0.60000","0.04999","85.91679"
"0.70000","0.05846","100.32"
"0.80000","0.06683","113.809"
"0.90000","0.07529","129.112"
"1.00000","0.08366","142.48"
"1.10000","0.09202","157.017"
"1.20000","0.10009","171.569"
"1.30000","0.10825","174.594"
"1.40000","0.11682","191.151"
"1.50000","0.12539","205.382"
"1.60000","0.13395","219.661"
"1.70000","0.14222","233.992"
"1.80000","0.15028","248.555"
"1.90000","0.15835","262.822"
"2.00000","0.16661","277.163"
"2.10000","0.17518","290.675"
"2.20000","0.18375","305.209"
"2.30000","0.19201","319.675"
"2.40000","0.20028","334.677"
"2.50000","0.20834","346.674"
"2.60000","0.21661","360.935"
"2.70000","0.22497","375.131"
"2.80000","0.23364","389.2"
"2.90000","0.24221","403.954"
"3.00000","0.25037","418.011"
"3.10000","0.25843","432.039"
"3.20000","0.26660","445.22"
"3.30000","0.27497","458.776"
"3.40000","0.28343","473.85"
"3.50000","0.29200","487.107"
"3.60000","0.30047","501.12"
"3.70000","0.30863","515.498"
"3.80000","0.31690","528.575"
"3.90000","0.32496","542.137"
"4.00000","0.33322","555.788"
"4.10000","0.34179","569.011"
"4.20000","0.35036","584.85"
"4.30000","0.35883","597.681"
"4.40000","0.36729","612.049"
"4.50000","0.37536","626.568"
"4.60000","0.38332","639.702"
"4.70000","0.39168","652.683"
"4.80000","0.40015","667.085"
"4.90000","0.40842","679.228"
"5.00000","0.41668","693.174"
"5.10000","0.42535","707.964"
"5.20000","0.43351","720.837"
"5.30000","0.44158","733.955"
"5.40000","0.44984","747.218"
"5.50000","0.45831","760.204"
"5.60000","0.46688","774.611"
"5.70000","0.47524","786.735"
"5.80000","0.48361","800.717"
"5.90000","0.49187","813.655"
"6.00000","0.49994","827.087"
"6.10000","0.50830","841.696"
"6.20000","0.51697","855.133"
"6.30000","0.52544","868.605"
"6.40000","0.53350","880.898"
"6.50000","0.54177","893.474"
"6.60000","0.55013","907.029"
"6.70000","0.55840","920.002"
"6.80000","0.56666","932.711"
"6.90000","0.57523","945.9"
"7.00000","0.58380","960.981"
"7.10000","0.59216","973.702"
"7.20000","0.60023","986.393"
"7.30000","0.60849","999.462"
"7.40000","0.61676","1011.64"
"7.50000","0.62502","1025.01"
"7.60000","0.63349","1038.76"
"7.70000","0.64216","1052.04"
"7.80000","0.65052","1064.39"
"7.90000","0.65869","1078.6"
"8.00000","0.66665","1089.9"
"8.10000","0.67471","1102.14"
"8.20000","0.68318","1115.52"
"8.30000","0.69185","1129.58"
"8.40000","0.70042","1141.49"
"8.50000","0.70858","1154.02"
"8.60000","0.71644","1166.27"
"8.70000","0.72471","1179.77"
"8.80000","0.73327","1191.69"
"8.90000","0.74184","1205.06"
"9.00000","0.75021","1218.41"
"9.10000","0.75867","1231.63"
"9.20000","0.76704","1244.11"
"9.30000","0.77530","1256.89"
"9.40000","0.78337","1269.47"
"9.50000","0.79173","1280.97"
"9.60000","0.80030","1294.54"
"9.70000","0.80857","1307.46"
"9.80000","0.81703","1319.68"
"9.90000","0.82560","1332.05"
"10.00000","0.83356","1344.06"
"10.10000","0.84153","1355.07"
"10.20000","0.84999","1367.69"
"10.30000","0.85876","1381.82"
"10.40000","0.86713","1395.06"
"10.50000","0.87539","1405.73"
"10.60000","0.88366","1418.46"
"10.70000","0.89162","1429.59"
"10.80000","0.89968","1442.52"
"10.90000","0.90815","1454.09"
"11.00000","0.91702","1468.27"
"11.10000","0.92518","1481.56"
"11.20000","0.93345","1491.79"
"11.30000","0.94161","1504.25"
"11.40000","0.95008","1515.84"
"11.50000","0.95825","1528.61"
"11.60000","0.96681","1541.37"
"11.70000","0.97548","1553.74"
"11.80000","0.98375","1565.15"
"11.90000","0.99191","1576.15"
"12.00000","0.99997","1587.87"
"12.10000","1.00794","1598.18"
"12.20000","1.01640","1610.67"
"12.30000","1.02487","1622.21"
"12.40000","1.03374","1635.55"
"12.50000","1.04241","1648.11"
"12.60000","1.05057","1660.2"
"12.70000","1.05843","1671.58"
"12.80000","1.06630","1682.63"
"12.90000","1.07486","1694.49"
"13.00000","1.08343","1705.14"
"13.10000","1.09210","1716.36"
"13.20000","1.10057","1727.58"
"13.30000","1.10863","1738.88"
"13.40000","1.11659","1751.01"
"13.50000","1.12486","1761.34"
"13.60000","1.13342","1772.55"
"13.70000","1.14189","1784.08"
"13.80000","1.15036","1796.35"
"13.90000","1.15872","1807.77"
"14.00000","1.16699","1819.08"
"14.10000","1.17495","1830.06"
"14.20000","1.18332","1840.57"
"14.30000","1.19188","1853.33"
"14.40000","1.20025","1864.22"
"14.50000","1.20852","1875.34"
"14.60000","1.21708","1886.55"
"14.70000","1.22545","1898.46"
"14.80000","1.23331","1908.76"
"14.90000","1.24148","1919.78"
"15.00000","1.25004","1931.35"
"15.10000","1.25871","1943.88"
"15.20000","1.26677","1954.2"
"15.30000","1.27534","1965.2"
"15.40000","1.28351","1975.73"
"15.50000","1.29157","1986.13"
"15.60000","1.29983","1997.4"
"15.70000","1.30850","2008.45"
"15.80000","1.31717","2020.73"
"15.90000","1.32534","2029.09"
"16.00000","1.33350","2040.31"
"16.10000","1.34187","2052.72"
"16.20000","1.35023","2064.11"
"16.30000","1.35830","2071.99"
"16.40000","1.36666","2082.94"
"16.50000","1.37533","2094.27"
"16.60000","1.38370","2104.78"
"16.70000","1.39196","2116.34"
"16.80000","1.40002","2125.52"
"16.90000","1.40829","2135.69"
"17.00000","1.41655","2145.89"
"17.10000","1.42492","2157.5"
"17.20000","1.43359","2169.17"
"17.30000","1.44205","2179.84"
"17.40000","1.45042","2190.86"
"17.50000","1.45838","2200.68"
"17.60000","1.46655","2210.21"
"17.70000","1.47501","2220.91"
"17.80000","1.48368","2232.22"
"17.90000","1.49215","2244"
"18.00000","1.50031","2254.56"
"18.10000","1.50848","2264.38"
"18.20000","1.51664","2274.44"
"18.30000","1.52501","2285.46"
"18.40000","1.53347","2296.14"
"18.50000","1.54204","2306.82"
"18.60000","1.55031","2316.87"
"18.70000","1.55857","2327.24"
"18.80000","1.56694","2338.63"
"18.90000","1.57490","2348.26"
"19.00000","1.58337","2358.1"
"19.10000","1.59193","2369.1"
"19.20000","1.60000","2379.35"
"19.30000","1.60857","2389.49"
"19.40000","1.61713","2400.02"
"19.50000","1.62540","2410.1"
"19.60000","1.63316","2420.32"
"19.70000","1.64163","2431.06"
"19.80000","1.65040","2441.69"
"19.90000","1.65876","2452.65"
"20.00000","1.66703","2462.76"
"20.10000","1.67539","2472.85"
"20.20000","1.68366","2483.35"
"20.30000","1.69172","2493.57"
"20.40000","1.69988","2502.29"
"20.50000","1.70875","2513.3"
"20.60000","1.71722","2523.45"
"20.70000","1.72528","2533.3"
"20.80000","1.73345","2542.86"
"20.90000","1.74181","2552.92"
"21.00000","1.74988","2562.11"
"21.10000","1.75824","2571.92"
"21.20000","1.76701","2582.55"
"21.30000","1.77528","2592.84"
"21.40000","1.78364","2602.1"
"21.50000","1.79191","2611.4"
"21.60000","1.79997","2620.38"
"21.70000","1.80814","2630.82"
"21.80000","1.81640","2640.57"
"21.90000","1.82517","2651.68"
"22.00000","1.83374","2661.23"
"22.10000","1.84210","2667.62"
"22.20000","1.85027","2675.01"
"22.30000","1.85813","2684.19"
"22.40000","1.86629","2693.89"
"22.50000","1.87506","2703.38"
"22.60000","1.88373","2715.38"
"22.70000","1.89230","2724.26"
"22.80000","1.90046","2734.18"
"22.90000","1.90843","2742.09"
"23.00000","1.91649","2750.86"
"23.10000","1.92486","2760.84"
"23.20000","1.93342","2769.9"
"23.30000","1.94189","2779.97"
"23.40000","1.95036","2789.37"
"23.50000","1.95882","2798.92"
"23.60000","1.96689","2807.68"
"23.70000","1.97515","2817.8"
"23.80000","1.98342","2826.28"
"23.90000","1.99188","2835.8"
"24.00000","2.00015","2844.72"
"24.10000","2.00872","2854.5"
"24.20000","2.01718","2862.8"
"24.30000","2.02515","2871.48"
"24.40000","2.03311","2874.61"
"24.50000","2.04157","2883.74"
"24.60000","2.05024","2893.64"
"24.70000","2.05861","2900.73"
"24.80000","2.06687","2907.96"
"24.90000","2.07514","2916.51"
"25.00000","2.08361","2924.8"
"25.10000","2.09137","2933.75"
"25.20000","2.09983","2941.59"
"25.30000","2.10860","2951.12"
"25.40000","2.11707","2960.51"
"25.50000","2.12503","2968.21"
"25.60000","2.13340","2976.4"
"25.70000","2.14176","2985.16"
"25.80000","2.15023","2994.51"
"25.90000","2.15880","3003.57"
"26.00000","2.16737","3011.99"
"26.10000","2.17553","3020.45"
"26.20000","2.18349","3027.85"
"26.30000","2.19176","3036.64"
"26.40000","2.20002","3045.35"
"26.50000","2.20839","3048.35"
"26.60000","2.21675","3055.19"
"26.70000","2.22532","3064.13"
"26.80000","2.23389","3073.03"
"26.90000","2.24205","3080.79"
"27.00000","2.25022","3089.12"
"27.10000","2.25818","3096.52"
"27.20000","2.26655","3103.57"
"27.30000","2.27511","3113.13"
"27.40000","2.28358","3120.44"
"27.50000","2.29185","3128.56"
"27.60000","2.30001","3137.35"
"27.70000","2.30807","3144.7"
"27.80000","2.31654","3151.93"
"27.90000","2.32501","3159.15"
"28.00000","2.33368","3168.38"
"28.10000","2.34214","3176.23"
"28.20000","2.35041","3183.35"
"28.30000","2.35857","3191.33"
"28.40000","2.36663","3197.9"
"28.50000","2.37490","3205.85"
"28.60000","2.38337","3214.35"
"28.70000","2.39183","3220.86"
"28.80000","2.40030","3228.46"
"28.90000","2.40887","3235.94"
"29.00000","2.41713","3243.08"
"29.10000","2.42499","3249.43"
"29.20000","2.43316","3255.57"
"29.30000","2.44183","3263.42"
"29.40000","2.45049","3271.11"
"29.50000","2.45866","3276.33"
"29.60000","2.46692","3283.47"
"29.70000","2.47519","3290.55"
"29.80000","2.48325","3297.02"
"29.90000","2.49152","3303.52"
"30.00000","2.50009","3309.38"
"30.10000","2.50865","3316.29"
"30.20000","2.51692","3321.91"
"30.30000","2.52498","3327.49"
"30.40000","2.53345","3334.45"
"30.50000","2.54161","3339.1"
"30.60000","2.54998","3345.23"
"30.70000","2.55844","3352.77"
"30.80000","2.56701","3360.2"
"30.90000","2.57538","3366.36"
"31.00000","2.58364","3373.18"
"31.10000","2.59171","3377.91"
"31.20000","2.59987","3384.31"
"31.30000","2.60834","3389.86"
"31.40000","2.61701","3397.51"
"31.50000","2.62547","3402.88"
"31.60000","2.63394","3407.83"
"31.70000","2.64210","3412.74"
"31.80000","2.64997","3417.86"
"31.90000","2.65823","3417.49"
"32.00000","2.66660","3419.57"
"32.10000","2.67547","3424.57"
"32.20000","2.68383","3330.13"
"32.30000","2.69200","3343.27"
"32.40000","2.70006","3350.41"
"32.50000","2.70832","3356.87"
"32.60000","2.71659","3363.55"
"32.70000","2.72506","3369.62"
"32.80000","2.73352","3376.16"
"32.90000","2.74199","3382.23"
"33.00000","2.75036","3389.9"
"33.10000","2.75842","3395.23"
"33.20000","2.76658","3402.18"
"33.30000","2.77485","3408.03"
"33.40000","2.78352","3415.69"
"33.50000","2.79178","3421.75"
"33.60000","2.80025","3428.7"
"33.70000","2.80882","3435.21"
"33.80000","2.81698","3441.69"
"33.90000","2.82484","3446.84"
"34.00000","2.83311","3453.62"
"34.10000","2.84188","3460.81"
"34.20000","2.85024","3466.85"
"34.30000","2.85841","3472.07"
"34.40000","2.86677","3479.02"
"34.50000","2.87504","3459.58"
"34.60000","2.88330","3455.61"
"34.70000","2.89177","3463.16"
"34.80000","2.90054","3472.35"
"34.90000","2.90890","3478.18"
"35.00000","2.91707","3482.11"
"35.10000","2.92523","3487.26"
"35.20000","2.93370","3494.11"
"35.30000","2.94166","3498.74"
"35.40000","2.95003","3504.35"
"35.50000","2.95849","3511.38"
"35.60000","2.96706","3517.91"
"35.70000","2.97553","3523.65"
"35.80000","2.98349","3529.4"
"35.90000","2.99155","3533.8"
"36.00000","2.99962","3540.62"
"36.10000","3.00829","3545.8"
"36.20000","3.01685","3552.93"
"36.30000","3.02542","3559.09"
"36.40000","3.03389","3563.58"
"36.50000","3.04195","3568.38"
"36.60000","3.04981","3572.58"
"36.70000","3.05828","3578.1"
"36.80000","3.06705","3583.38"
"36.90000","3.07562","3588.31"
"37.00000","3.08388","3593.75"
"37.10000","3.09205","3598.15"
"37.20000","3.09991","3602.06"
"37.30000","3.10807","3604.94"
"37.40000","3.11654","3609.12"
"37.50000","3.12511","3612.77"
"37.60000","3.13367","3617.33"
"37.70000","3.14194","3622.83"
"37.80000","3.15041","3627.64"
"37.90000","3.15847","3632.66"
"38.00000","3.16653","3637.37"
"38.10000","3.17520","3640.96"
"38.20000","3.18357","3646.84"
"38.30000","3.19183","3651.54"
"38.40000","3.20040","3656.54"
"38.50000","3.20866","3660.69"
"38.60000","3.21653","3665.27"
"38.70000","3.22459","3667.12"
"38.80000","3.23336","3672.17"
"38.90000","3.24223","3677.2"
"39.00000","3.25039","3680.27"
"39.10000","3.25876","3685.16"
"39.20000","3.26702","3688.74"
"39.30000","3.27499","3692.17"
"39.40000","3.28315","3697.53"
"39.50000","3.29182","3701.71"
"39.60000","3.30049","3706.65"
"39.70000","3.30875","3710.43"
"39.80000","3.31672","3713.63"
"39.90000","3.32498","3717.07"
"40.00000","3.33345","3721.52"
"40.10000","3.34161","3724.67"
"40.20000","3.35018","3728.89"
"40.30000","3.35865","3732.12"
"40.40000","3.36691","3736.49"
"40.50000","3.37528","3740.42"
"40.60000","3.38334","3744.22"
"40.70000","3.39161","3747.02"
"40.80000","3.39987","3751.08"
"40.90000","3.40844","3753.57"
"41.00000","3.41711","3757.3"
"41.10000","3.42557","3760.56"
"41.20000","3.43364","3763.83"
"41.30000","3.44150","3765.82"
"41.40000","3.44956","3768.5"
"41.50000","3.45813","3770.4"
"41.60000","3.46700","3773.81"
"41.70000","3.47557","3777.29"
"41.80000","3.48373","3779.98"
"41.90000","3.49169","3780.92"
"42.00000","3.49996","3782.84"
"42.10000","3.50853","3784.49"
"42.20000","3.51689","3786.04"
"42.30000","3.52536","3787.75"
"42.40000","3.53383","3789.64"
"42.50000","3.54229","3791.48"
"42.60000","3.55046","3792.39"
"42.70000","3.55842","3792.87"
"42.80000","3.56668","3793.28"
"42.90000","3.57515","3794.98"
"43.00000","3.58331","3794.65"
"43.10000","3.59178","3794.92"
"43.20000","3.60045","3795.21"
"43.30000","3.60871","3794.88"
"43.40000","3.61668","3795.56"
"43.50000","3.62474","3793.42"
"43.60000","3.63351","3793.51"
"43.70000","3.64218","3793.15"
"43.80000","3.65024","3790.31"
"43.90000","3.65861","3787.1"
"44.00000","3.66687","3784.5"
"44.10000","3.67494","3780.69"
"44.20000","3.68310","3775.85"
"44.30000","3.69197","3770.67"
"44.40000","3.70054","3764.51"
"44.50000","3.70840","3754.05"
"44.60000","3.71687","3740.33"
"44.70000","3.72533","3714.66"
"44.80000","3.73350","3679.61"
"44.90000","3.74196","3618.49"
"44.99400","3.74993","3331.83"
"44.99800","3.75023","3048.4"
"45.00200","3.75063","2691.87"
"45.00600","3.75114","2296.84"
"45.00800","3.75134","2097.55"