File: Data_Processing/Tensile-Data/Sequence_43.csv
General : Start date,"10/29/2024 10:50 AM"
General : End date,"10/29/2024 10:51 AM"
Specimen notes : Specimen note 1,"Day 2, blue, 230, batch 2, seq 43"
Test : Rate 1,"5.00000",mm/min

Time,Extension,Load
(s),(mm),(N)
"0.00000","0.00000","0.07471"
"0.10000","0.00111","0.52602"
"0.20000","0.00806","7.68195"
"0.30000","0.02228","32.94670"
"0.40000","0.03165","51.94796"
"0.50000","0.04002","64.88788"
"0.60000","0.04929","79.97307"
"0.70000","0.05806","94.80833"
"0.80000","0.06642","109.391"
"0.90000","0.07489","123.475"
"1.00000","0.08305","136.539"
"1.10000","0.09152","149.691"
"1.20000","0.09999","163.958"
"1.30000","0.10855","177.265"
"1.40000","0.11702","191.665"
"1.50000","0.12519","204.462"
"1.60000","0.13355","218.464"
"1.70000","0.14182","231.249"
"1.80000","0.14988","244.201"
"1.90000","0.15815","257.058"
"2.00000","0.16671","271.183"
"2.10000","0.17538","284.641"
"2.20000","0.18365","298.071"
"2.30000","0.19181","311.205"
"2.40000","0.19987","323.96"
"2.50000","0.20814","336.345"
"2.60000","0.21671","349.064"
"2.70000","0.22527","363.158"
"2.80000","0.23364","375.736"
"2.90000","0.24211","388.906"
"3.00000","0.25007","401.441"
"3.10000","0.25813","413.93"
"3.20000","0.26650","426.137"
"3.30000","0.27497","438.79"
"3.40000","0.28333","451.691"
"3.50000","0.29170","463.918"
"3.60000","0.30006","476.742"
"3.70000","0.30823","488.271"
"3.80000","0.31649","499.887"
"3.90000","0.32486","512.975"
"4.00000","0.33343","525.751"
"4.10000","0.34179","538.091"
"4.20000","0.34996","550.685"
"4.30000","0.35842","561.668"
"4.40000","0.36689","574.38"
"4.50000","0.37485","585.638"
"4.60000","0.38322","597.904"
"4.70000","0.39199","610.569"
"4.80000","0.40045","622.872"
"4.90000","0.40872","633.32"
"5.00000","0.41698","645.199"
"5.10000","0.42505","656.994"
"5.20000","0.43311","666.908"
"5.30000","0.44158","679.097"
"5.40000","0.45025","690.19"
"5.50000","0.45861","701.622"
"5.60000","0.46698","712.415"
"5.70000","0.47504","723.34"
"5.80000","0.48331","733.882"
"5.90000","0.49137","744.504"
"6.00000","0.49973","756.355"
"6.10000","0.50840","768.23"
"6.20000","0.51677","778.909"
"6.30000","0.52524","790.03"
"6.40000","0.53340","800.536"
"6.50000","0.54156","810.591"
"6.60000","0.54973","820.857"
"6.70000","0.55820","831.893"
"6.80000","0.56686","842.535"
"6.90000","0.57533","852.421"
"7.00000","0.58349","863.186"
"7.10000","0.59176","873.441"
"7.20000","0.59982","882.801"
"7.30000","0.60819","893.253"
"7.40000","0.61666","903.766"
"7.50000","0.62522","915.81"
"7.60000","0.63369","925.58"
"7.70000","0.64206","935.496"
"7.80000","0.64992","944.488"
"7.90000","0.65808","953.978"
"8.00000","0.66675","964.294"
"8.10000","0.67512","974.012"
"8.20000","0.68318","983.299"
"8.30000","0.69185","992.037"
"8.40000","0.70031","1000.52"
"8.50000","0.70828","1009.52"
"8.60000","0.71634","1017.2"
"8.70000","0.72471","1026.96"
"8.80000","0.73348","1035.92"
"8.90000","0.74174","1043.9"
"9.00000","0.75011","1052.43"
"9.10000","0.75827","1061.24"
"9.20000","0.76623","1069.05"
"9.30000","0.77430","1078.11"
"9.40000","0.78307","1086.64"
"9.50000","0.79194","1096.75"
"9.60000","0.80020","1105.38"
"9.70000","0.80816","1113.69"
"9.80000","0.81673","1122.41"
"9.90000","0.82530","1131.5"
"10.00000","0.83336","1140.08"
"10.10000","0.84183","1148.67"
"10.20000","0.85040","1157.48"
"10.30000","0.85866","1166.04"
"10.40000","0.86703","1174.1"
"10.50000","0.87499","1182.65"
"10.60000","0.88315","1190.77"
"10.70000","0.89162","1199.54"
"10.80000","0.89999","1208.33"
"10.90000","0.90845","1216.59"
"11.00000","0.91702","1225.17"
"11.10000","0.92518","1233.31"
"11.20000","0.93335","1242.06"
"11.30000","0.94141","1250.48"
"11.40000","0.94978","1258.69"
"11.50000","0.95855","1267.4"
"11.60000","0.96701","1276.16"
"11.70000","0.97528","1284.65"
"11.80000","0.98334","1293.18"
"11.90000","0.99131","1301.92"
"12.00000","0.99977","1310.26"
"12.10000","1.00824","1318.99"
"12.20000","1.01691","1327.11"
"12.30000","1.02527","1335.06"
"12.40000","1.03364","1343.14"
"12.50000","1.04170","1351.19"
"12.60000","1.04987","1358.85"
"12.70000","1.05813","1367.33"
"12.80000","1.06660","1375.39"
"12.90000","1.07496","1384.29"
"13.00000","1.08343","1393.22"
"13.10000","1.09210","1401.6"
"13.20000","1.10026","1409.73"
"13.30000","1.10823","1418.22"
"13.40000","1.11659","1425.46"
"13.50000","1.12516","1434.71"
"13.60000","1.13373","1442.85"
"13.70000","1.14189","1450.13"
"13.80000","1.15026","1458.95"
"13.90000","1.15842","1467.17"
"14.00000","1.16638","1474.67"
"14.10000","1.17485","1482.77"
"14.20000","1.18342","1490.35"
"14.30000","1.19188","1498.15"
"14.40000","1.20005","1505.08"
"14.50000","1.20821","1513.89"
"14.60000","1.21638","1521.2"
"14.70000","1.22454","1528.48"
"14.80000","1.23291","1535.6"
"14.90000","1.24158","1544.32"
"15.00000","1.25004","1552.4"
"15.10000","1.25851","1560.38"
"15.20000","1.26688","1567.29"
"15.30000","1.27494","1575.89"
"15.40000","1.28330","1582.36"
"15.50000","1.29157","1589.77"
"15.60000","1.30004","1598.71"
"15.70000","1.30850","1606.09"
"15.80000","1.31697","1613.08"
"15.90000","1.32534","1620.77"
"16.00000","1.33330","1627.82"
"16.10000","1.34146","1635.88"
"16.20000","1.35003","1643.69"
"16.30000","1.35870","1652.35"
"16.40000","1.36727","1659.58"
"16.50000","1.37543","1667.06"
"16.60000","1.38339","1674.57"
"16.70000","1.39156","1682.01"
"16.80000","1.39992","1690.27"
"16.90000","1.40829","1697.65"
"17.00000","1.41686","1705.4"
"17.10000","1.42512","1712.78"
"17.20000","1.43339","1720.62"
"17.30000","1.44155","1727.99"
"17.40000","1.44961","1734.34"
"17.50000","1.45808","1741.73"
"17.60000","1.46665","1749.32"
"17.70000","1.47481","1756.34"
"17.80000","1.48338","1764.25"
"17.90000","1.49205","1772.02"
"18.00000","1.50021","1778.87"
"18.10000","1.50807","1785.84"
"18.20000","1.51644","1793.73"
"18.30000","1.52501","1802.23"
"18.40000","1.53358","1809.3"
"18.50000","1.54194","1817.32"
"18.60000","1.55021","1825.32"
"18.70000","1.55837","1832.93"
"18.80000","1.56653","1840.62"
"18.90000","1.57490","1848.56"
"19.00000","1.58367","1856.28"
"19.10000","1.59204","1863.82"
"19.20000","1.60020","1871.46"
"19.30000","1.60846","1878.34"
"19.40000","1.61683","1886.56"
"19.50000","1.62489","1893.79"
"19.60000","1.63326","1901.18"
"19.70000","1.64173","1908.43"
"19.80000","1.65019","1916.58"
"19.90000","1.65856","1923.96"
"20.00000","1.66672","1931.58"
"20.10000","1.67479","1938.03"
"20.20000","1.68315","1945.7"
"20.30000","1.69152","1954.38"
"20.40000","1.69999","1961.53"
"20.50000","1.70865","1970.05"
"20.60000","1.71702","1977.96"
"20.70000","1.72518","1984.62"
"20.80000","1.73305","1991.29"
"20.90000","1.74121","1999.18"
"21.00000","1.75008","2007.58"
"21.10000","1.75875","2014.92"
"21.20000","1.76701","2022.88"
"21.30000","1.77518","2029.28"
"21.40000","1.78324","2036.68"
"21.50000","1.79151","2044.19"
"21.60000","1.79977","2051.29"
"21.70000","1.80844","2059.73"
"21.80000","1.81701","2067.89"
"21.90000","1.82547","2075.86"
"22.00000","1.83354","2082.82"
"22.10000","1.84170","2090.09"
"22.20000","1.84987","2098.51"
"22.30000","1.85823","2105.92"
"22.40000","1.86660","2114.25"
"22.50000","1.87506","2121.26"
"22.60000","1.88373","2128.28"
"22.70000","1.89200","2137.11"
"22.80000","1.89986","2144.18"
"22.90000","1.90792","2151.16"
"23.00000","1.91659","2158.56"
"23.10000","1.92526","2168.02"
"23.20000","1.93352","2174.62"
"23.30000","1.94199","2182.87"
"23.40000","1.95016","2189.28"
"23.50000","1.95792","2197.17"
"23.60000","1.96628","2205.2"
"23.70000","1.97495","2212.69"
"23.80000","1.98362","2219.29"
"23.90000","1.99198","2227.54"
"24.00000","2.00005","2235.4"
"24.10000","2.00841","2243.18"
"24.20000","2.01668","2250.27"
"24.30000","2.02504","2257.78"
"24.40000","2.03361","2265.57"
"24.50000","2.04208","2273.23"
"24.60000","2.05034","2281.52"
"24.70000","2.05851","2288.98"
"24.80000","2.06647","2295.65"
"24.90000","2.07474","2302.91"
"25.00000","2.08310","2310.83"
"25.10000","2.09177","2318.15"
"25.20000","2.10024","2325.84"
"25.30000","2.10860","2332.42"
"25.40000","2.11687","2340.56"
"25.50000","2.12483","2347.84"
"25.60000","2.13299","2355.55"
"25.70000","2.14136","2362.41"
"25.80000","2.15003","2369.94"
"25.90000","2.15850","2379.05"
"26.00000","2.16696","2385.54"
"26.10000","2.17493","2392.97"
"26.20000","2.18319","2400.35"
"26.30000","2.19156","2407.77"
"26.40000","2.20002","2415.74"
"26.50000","2.20869","2423.35"
"26.60000","2.21686","2431.27"
"26.70000","2.22532","2438.22"
"26.80000","2.23359","2446.23"
"26.90000","2.24155","2452.93"
"27.00000","2.24992","2459.91"
"27.10000","2.25838","2468.85"
"27.20000","2.26675","2477"
"27.30000","2.27501","2483.24"
"27.40000","2.28358","2491.34"
"27.50000","2.29195","2497.92"
"27.60000","2.29981","2505.76"
"27.70000","2.30807","2512.65"
"27.80000","2.31664","2520.4"
"27.90000","2.32511","2528.17"
"28.00000","2.33347","2535.66"
"28.10000","2.34184","2542.89"
"28.20000","2.35000","2549.85"
"28.30000","2.35807","2556.94"
"28.40000","2.36643","2563.68"
"28.50000","2.37510","2571.48"
"28.60000","2.38377","2579.22"
"28.70000","2.39183","2585.42"
"28.80000","2.39990","2594.08"
"28.90000","2.40836","2601.28"
"29.00000","2.41663","2608.54"
"29.10000","2.42509","2615.9"
"29.20000","2.43346","2622.98"
"29.30000","2.44183","2630.81"
"29.40000","2.45019","2638.22"
"29.50000","2.45846","2645.54"
"29.60000","2.46662","2653.13"
"29.70000","2.47499","2659.98"
"29.80000","2.48325","2667.48"
"29.90000","2.49182","2676.32"
"30.00000","2.50029","2682.59"
"30.10000","2.50865","2690.18"
"30.20000","2.51682","2697.58"
"30.30000","2.52488","2704.61"
"30.40000","2.53304","2711.36"
"30.50000","2.54151","2719.39"
"30.60000","2.55008","2727.19"
"30.70000","2.55855","2734.56"
"30.80000","2.56681","2741.91"
"30.90000","2.57498","2749.37"
"31.00000","2.58314","2755.88"
"31.10000","2.59140","2763.38"
"31.20000","2.59997","2771.06"
"31.30000","2.60834","2778.9"
"31.40000","2.61660","2787.3"
"31.50000","2.62517","2793.68"
"31.60000","2.63354","2801.6"
"31.70000","2.64170","2808.75"
"31.80000","2.65007","2815.88"
"31.90000","2.65843","2823.67"
"32.00000","2.66670","2830.95"
"32.10000","2.67547","2838.66"
"32.20000","2.68393","2845.38"
"32.30000","2.69190","2852.43"
"32.40000","2.69996","2859.88"
"32.50000","2.70832","2867.15"
"32.60000","2.71699","2874.49"
"32.70000","2.72536","2881.4"
"32.80000","2.73352","2889.6"
"32.90000","2.74189","2896.59"
"33.00000","2.75015","2903.13"
"33.10000","2.75812","2910.13"
"33.20000","2.76648","2917.13"
"33.30000","2.77525","2924.51"
"33.40000","2.78372","2932.18"
"33.50000","2.79158","2939.12"
"33.60000","2.79985","2945.9"
"33.70000","2.80811","2952.9"
"33.80000","2.81638","2960.31"
"33.90000","2.82484","2967.32"
"34.00000","2.83341","2974.21"
"34.10000","2.84178","2981.48"
"34.20000","2.85014","2988.5"
"34.30000","2.85831","2995.72"
"34.40000","2.86637","3002.63"
"34.50000","2.87474","3010.31"
"34.60000","2.88330","3018.38"
"34.70000","2.89187","3025.76"
"34.80000","2.90044","3032.98"
"34.90000","2.90860","3040.39"
"35.00000","2.91677","3046.89"
"35.10000","2.92473","3053.69"
"35.20000","2.93309","3061.06"
"35.30000","2.94186","3068.56"
"35.40000","2.95053","3075.87"
"35.50000","2.95890","3083.04"
"35.60000","2.96686","3089.3"
"35.70000","2.97482","3096.48"
"35.80000","2.98319","3103.83"
"35.90000","2.99155","3110.47"
"36.00000","3.00012","3117.81"
"36.10000","3.00859","3125.34"
"36.20000","3.01695","3131.54"
"36.30000","3.02522","3138.66"
"36.40000","3.03318","3144.98"
"36.50000","3.04125","3151.92"
"36.60000","3.04991","3159.53"
"36.70000","3.05818","3165.53"
"36.80000","3.06644","3172.67"
"36.90000","3.07501","3179.95"
"37.00000","3.08338","3186.72"
"37.10000","3.09144","3193.07"
"37.20000","3.09961","3200.91"
"37.30000","3.10838","3207.58"
"37.40000","3.11694","3214.14"
"37.50000","3.12521","3221.74"
"37.60000","3.13357","3229.19"
"37.70000","3.14194","3236.63"
"37.80000","3.15000","3242.48"
"37.90000","3.15817","3249.31"
"38.00000","3.16684","3256.68"
"38.10000","3.17560","3264.34"
"38.20000","3.18357","3270.8"
"38.30000","3.19163","3278.05"
"38.40000","3.19990","3284.86"
"38.50000","3.20826","3291.31"
"38.60000","3.21683","3298.8"
"38.70000","3.22519","3305.73"
"38.80000","3.23356","3312.94"
"38.90000","3.24193","3319.24"
"39.00000","3.24999","3326.29"
"39.10000","3.25815","3333.12"
"39.20000","3.26652","3340.07"
"39.30000","3.27489","3346.41"
"39.40000","3.28325","3353.6"
"39.50000","3.29192","3360.61"
"39.60000","3.30029","3366.61"
"39.70000","3.30855","3373.9"
"39.80000","3.31651","3380.5"
"39.90000","3.32468","3385.73"
"40.00000","3.33314","3393.5"
"40.10000","3.34181","3401.95"
"40.20000","3.35038","3408.53"
"40.30000","3.35844","3415.15"
"40.40000","3.36661","3421.79"
"40.50000","3.37487","3428.4"
"40.60000","3.38324","3435"
"40.70000","3.39161","3441.74"
"40.80000","3.40027","3449.21"
"40.90000","3.40864","3454.91"
"41.00000","3.41701","3463.06"
"41.10000","3.42507","3469.55"
"41.20000","3.43323","3475.4"
"41.30000","3.44160","3482.39"
"41.40000","3.44996","3488.83"
"41.50000","3.45823","3495.22"
"41.60000","3.46690","3503.29"
"41.70000","3.47536","3509.73"
"41.80000","3.48353","3515.56"
"41.90000","3.49139","3521.76"
"42.00000","3.49976","3528.85"
"42.10000","3.50842","3535.48"
"42.20000","3.51679","3541.83"
"42.30000","3.52506","3549.32"
"42.40000","3.53352","3555.32"
"42.50000","3.54169","3561.41"
"42.60000","3.54975","3567.49"
"42.70000","3.55822","3573.24"
"42.80000","3.56699","3580.19"
"42.90000","3.57545","3586.89"
"43.00000","3.58342","3592.34"
"43.10000","3.59168","3599.22"
"43.20000","3.60015","3605.26"
"43.30000","3.60821","3610.91"
"43.40000","3.61658","3617.85"
"43.50000","3.62524","3624.04"
"43.60000","3.63361","3630.23"
"43.70000","3.64188","3636.8"
"43.80000","3.65004","3643.02"
"43.90000","3.65820","3648.83"
"44.00000","3.66657","3654.87"
"44.10000","3.67494","3661.46"
"44.20000","3.68370","3667.25"
"44.30000","3.69207","3673.63"
"44.40000","3.70034","3679.26"
"44.50000","3.70850","3685.32"
"44.60000","3.71646","3690.93"
"44.70000","3.72473","3696.66"
"44.80000","3.73330","3702.43"
"44.90000","3.74196","3709.23"
"45.00000","3.75033","3715.67"
"45.10000","3.75849","3720.96"
"45.20000","3.76666","3726.94"
"45.30000","3.77482","3732.53"
"45.40000","3.78319","3737.75"
"45.50000","3.79166","3744.87"
"45.60000","3.80012","3750.47"
"45.70000","3.80849","3756.41"
"45.80000","3.81685","3761.76"
"45.90000","3.82502","3766.97"
"46.00000","3.83318","3771.35"
"46.10000","3.84155","3776.9"
"46.20000","3.85001","3783.16"
"46.30000","3.85838","3788.42"
"46.40000","3.86705","3792.92"
"46.50000","3.87541","3797.94"
"46.60000","3.88338","3803.62"
"46.70000","3.89134","3808.1"
"46.80000","3.89971","3814.27"
"46.90000","3.90858","3818.15"
"47.00000","3.91684","3822.93"
"47.10000","3.92500","3828.84"
"47.20000","3.93327","3832.83"
"47.30000","3.94153","3837.05"
"47.40000","3.94970","3841.37"
"47.50000","3.95827","3846.63"
"47.60000","3.96704","3850.71"
"47.70000","3.97540","3854.71"
"47.80000","3.98336","3858.24"
"47.90000","3.99153","3861.96"
"48.00000","3.99989","3866.14"
"48.10000","4.00816","3869.95"
"48.20000","4.01673","3873.34"
"48.30000","4.02529","3876.03"
"48.40000","4.03366","3879.4"
"48.50000","4.04203","3882.66"
"48.60000","4.04999","3885.24"
"48.70000","4.05825","3887.6"
"48.80000","4.06662","3890.9"
"48.90000","4.07499","3892.94"
"49.00000","4.08355","3895.27"
"49.10000","4.09202","3897.42"
"49.20000","4.10039","3899.31"
"49.30000","4.10845","3900.49"
"49.40000","4.11651","3901.84"
"49.50000","4.12478","3902.63"
"49.60000","4.13355","3904.14"
"49.70000","4.14232","3904.64"
"49.80000","4.15038","3903.16"
"49.90000","4.15834","3903.05"
"50.00000","4.16641","3900.28"
"50.10000","4.17467","3899.16"
"50.20000","4.18324","3897.19"
"50.30000","4.19191","3894.36"
"50.40000","4.20027","3891.83"
"50.50000","4.20864","3886.52"
"50.60000","4.21670","3880.57"
"50.70000","4.22477","3874.09"
"50.80000","4.23313","3865.73"
"50.90000","4.24160","3855.07"
"51.00000","4.24986","3843.51"
"51.10000","4.25843","3825.83"
"51.20000","4.26710","3799.98"
"51.30000","4.27536","3743.21"
"51.33600","4.27829","3446.71"
"51.34000","4.27859","3110.24"
"51.34400","4.27899","2719.24"
"51.34800","4.27950","2294.36"
"51.35000","4.27970","2083.37"