File: Data_Processing/Tensile-Data/Sequence_20.csv
General : Start date,"10/22/2024 10:11 AM"
General : End date,"10/22/2024 10:11 AM"
Specimen notes : Specimen note 1,"black, 200, batch 8, seq 20"
Test : Rate 1,"5.00000",mm/min

Time,Extension,Load
(s),(mm),(N)
"0.00000","0.00000","0.07683"
"0.10000","0.00101","0.03452"
"0.20000","0.00847","7.90345"
"0.30000","0.02298","34.08572"
"0.40000","0.03225","54.40251"
"0.50000","0.04032","67.73575"
"0.60000","0.04949","82.91184"
"0.70000","0.05826","97.80665"
"0.80000","0.06662","111.268"
"0.90000","0.07509","116.28"
"1.00000","0.08356","126.905"
"1.10000","0.09202","136.814"
"1.20000","0.10029","147.151"
"1.30000","0.10845","150.42"
"1.40000","0.11682","162.362"
"1.50000","0.12508","173.942"
"1.60000","0.13345","186.106"
"1.70000","0.14192","198.63"
"1.80000","0.15038","211.425"
"1.90000","0.15855","223.699"
"2.00000","0.16681","236.107"
"2.10000","0.17518","249.635"
"2.20000","0.18365","263.27"
"2.30000","0.19231","276.612"
"2.40000","0.20048","290.16"
"2.50000","0.20874","303.519"
"2.60000","0.21671","316.522"
"2.70000","0.22487","329.822"
"2.80000","0.23334","343.109"
"2.90000","0.24201","357.29"
"3.00000","0.25027","369.732"
"3.10000","0.25843","383.843"
"3.20000","0.26670","397.378"
"3.30000","0.27507","411.524"
"3.40000","0.28343","424.655"
"3.50000","0.29180","437.607"
"3.60000","0.30037","451.128"
"3.70000","0.30883","464.833"
"3.80000","0.31720","479.108"
"3.90000","0.32536","492.434"
"4.00000","0.33332","504.95"
"4.10000","0.34169","517.299"
"4.20000","0.34996","531.177"
"4.30000","0.35852","544.7"
"4.40000","0.36689","558.332"
"4.50000","0.37546","571.179"
"4.60000","0.38382","584.681"
"4.70000","0.39168","596.646"
"4.80000","0.39985","610.363"
"4.90000","0.40842","623.372"
"5.00000","0.41708","637.907"
"5.10000","0.42545","650.564"
"5.20000","0.43372","664.051"
"5.30000","0.44178","676.819"
"5.40000","0.44994","689.932"
"5.50000","0.45821","702.298"
"5.60000","0.46678","714.387"
"5.70000","0.47534","729.511"
"5.80000","0.48341","741.775"
"5.90000","0.49167","754.678"
"6.00000","0.50004","767.969"
"6.10000","0.50840","780.707"
"6.20000","0.51657","793.984"
"6.30000","0.52503","806.394"
"6.40000","0.53370","820.309"
"6.50000","0.54227","833.631"
"6.60000","0.55043","845.999"
"6.70000","0.55850","857.704"
"6.80000","0.56656","870.043"
"6.90000","0.57483","882.42"
"7.00000","0.58329","895.545"
"7.10000","0.59186","908.612"
"7.20000","0.60043","921.675"
"7.30000","0.60859","933.156"
"7.40000","0.61645","945.355"
"7.50000","0.62472","957.651"
"7.60000","0.63329","971.064"
"7.70000","0.64195","984.292"
"7.80000","0.65052","996.483"
"7.90000","0.65869","1008.16"
"8.00000","0.66675","1020.15"
"8.10000","0.67481","1030.8"
"8.20000","0.68318","1044.02"
"8.30000","0.69185","1057.03"
"8.40000","0.70011","1067.77"
"8.50000","0.70838","1080.85"
"8.60000","0.71684","1093.21"
"8.70000","0.72511","1104.99"
"8.80000","0.73317","1116.77"
"8.90000","0.74144","1128.8"
"9.00000","0.74980","1140.69"
"9.10000","0.75857","1153.37"
"9.20000","0.76704","1166.43"
"9.30000","0.77551","1177.74"
"9.40000","0.78337","1189.12"
"9.50000","0.79133","1200.05"
"9.60000","0.79980","1211.76"
"9.70000","0.80857","1224.66"
"9.80000","0.81723","1237.49"
"9.90000","0.82550","1249.26"
"10.00000","0.83346","1261.51"
"10.10000","0.84163","1272.34"
"10.20000","0.84989","1284.14"
"10.30000","0.85836","1295.24"
"10.40000","0.86693","1308.06"
"10.50000","0.87539","1319.6"
"10.60000","0.88376","1332.53"
"10.70000","0.89172","1342.8"
"10.80000","0.89978","1354.24"
"10.90000","0.90805","1365.61"
"11.00000","0.91662","1376.81"
"11.10000","0.92529","1389.14"
"11.20000","0.93375","1400.15"
"11.30000","0.94212","1412.6"
"11.40000","0.95028","1423.16"
"11.50000","0.95825","1434.74"
"11.60000","0.96641","1446.35"
"11.70000","0.97498","1457.72"
"11.80000","0.98365","1469.81"
"11.90000","0.99221","1482.01"
"12.00000","1.00048","1493.78"
"12.10000","1.00834","1504.65"
"12.20000","1.01650","1515.78"
"12.30000","1.02487","1526.67"
"12.40000","1.03334","1538.32"
"12.50000","1.04200","1549.74"
"12.60000","1.05017","1561.17"
"12.70000","1.05833","1571.26"
"12.80000","1.06650","1582.8"
"12.90000","1.07466","1593.93"
"13.00000","1.08323","1605.19"
"13.10000","1.09170","1616.51"
"13.20000","1.10016","1628.05"
"13.30000","1.10873","1639.42"
"13.40000","1.11699","1650.12"
"13.50000","1.12526","1661.66"
"13.60000","1.13332","1671.98"
"13.70000","1.14159","1682.18"
"13.80000","1.15016","1692.53"
"13.90000","1.15852","1702.85"
"14.00000","1.16679","1713.35"
"14.10000","1.17525","1725.13"
"14.20000","1.18322","1735.03"
"14.30000","1.19138","1744.92"
"14.40000","1.19995","1755.91"
"14.50000","1.20872","1765.1"
"14.60000","1.21708","1767.74"
"14.70000","1.22525","1780.33"
"14.80000","1.23361","1791.5"
"14.90000","1.24168","1802.29"
"15.00000","1.24974","1813.09"
"15.10000","1.25831","1824.46"
"15.20000","1.26718","1835.81"
"15.30000","1.27524","1846.81"
"15.40000","1.28351","1855.05"
"15.50000","1.29157","1864.19"
"15.60000","1.29983","1874.78"
"15.70000","1.30820","1886.59"
"15.80000","1.31667","1897.18"
"15.90000","1.32523","1854.62"
"16.00000","1.33370","1869.77"
"16.10000","1.34207","1881.4"
"16.20000","1.35013","1893.74"
"16.30000","1.35819","1904.63"
"16.40000","1.36656","1916.92"
"16.50000","1.37513","1928.9"
"16.60000","1.38359","1940.87"
"16.70000","1.39196","1952.44"
"16.80000","1.40023","1965.09"
"16.90000","1.40819","1975.07"
"17.00000","1.41655","1986.05"
"17.10000","1.42492","1997.98"
"17.20000","1.43359","2009.46"
"17.30000","1.44205","2021.4"
"17.40000","1.45052","2033.49"
"17.50000","1.45869","2043.57"
"17.60000","1.46665","2054.29"
"17.70000","1.47481","2064.93"
"17.80000","1.48348","2075.88"
"17.90000","1.49175","2086.6"
"18.00000","1.50001","2097.67"
"18.10000","1.50858","2107.95"
"18.20000","1.51694","2118.95"
"18.30000","1.52481","2128.01"
"18.40000","1.53307","2138.14"
"18.50000","1.54154","2149.32"
"18.60000","1.55021","2159.95"
"18.70000","1.55847","2169.78"
"18.80000","1.56674","2180.2"
"18.90000","1.57510","2189.76"
"19.00000","1.58347","2201.22"
"19.10000","1.59143","2211.13"
"19.20000","1.60010","2221.14"
"19.30000","1.60877","2230.23"
"19.40000","1.61703","2239.86"
"19.50000","1.62510","2250.62"
"19.60000","1.63346","2261.59"
"19.70000","1.64163","2272.66"
"19.80000","1.64989","2282.41"
"19.90000","1.65836","2237"
"20.00000","1.66713","2252.7"
"20.10000","1.67559","2264.51"
"20.20000","1.68366","2277.4"
"20.30000","1.69172","2288.38"
"20.40000","1.69988","2298.41"
"20.50000","1.70815","2310.54"
"20.60000","1.71682","2323.02"
"20.70000","1.72549","2335.45"
"20.80000","1.73395","2346.75"
"20.90000","1.74212","2357.31"
"21.00000","1.74998","2367.39"
"21.10000","1.75794","2378.65"
"21.20000","1.76651","2389.22"
"21.30000","1.77518","2401.29"
"21.40000","1.78364","2410.74"
"21.50000","1.79181","2421.2"
"21.60000","1.79997","2431.7"
"21.70000","1.80824","2443.34"
"21.80000","1.81650","2453.81"
"21.90000","1.82507","2464.24"
"22.00000","1.83344","2475.71"
"22.10000","1.84200","2487.12"
"22.20000","1.85047","2497.46"
"22.30000","1.85853","2507.92"
"22.40000","1.86660","2517.11"
"22.50000","1.87496","2528.54"
"22.60000","1.88343","2538.29"
"22.70000","1.89190","2549.3"
"22.80000","1.90036","2559.84"
"22.90000","1.90893","2569.61"
"23.00000","1.91689","2578.63"
"23.10000","1.92476","2587.61"
"23.20000","1.93322","2597.77"
"23.30000","1.94219","2607.76"
"23.40000","1.95056","2618.56"
"23.50000","1.95872","2627.04"
"23.60000","1.96689","2628.53"
"23.70000","1.97495","2638.76"
"23.80000","1.98311","2648.92"
"23.90000","1.99158","2660.8"
"24.00000","2.00025","2671.66"
"24.10000","2.00872","2683.66"
"24.20000","2.01678","2694.29"
"24.30000","2.02494","2703.45"
"24.40000","2.03351","2715.29"
"24.50000","2.04168","2723.83"
"24.60000","2.04994","2679.49"
"24.70000","2.05851","2693.51"
"24.80000","2.06697","2706.08"
"24.90000","2.07534","2716.83"
"25.00000","2.08330","2728.64"
"25.10000","2.09147","2739.27"
"25.20000","2.09963","2748.87"
"25.30000","2.10810","2759.62"
"25.40000","2.11697","2771.88"
"25.50000","2.12554","2782.85"
"25.60000","2.13370","2793.79"
"25.70000","2.14186","2805.12"
"25.80000","2.14983","2814.89"
"25.90000","2.15819","2824.72"
"26.00000","2.16676","2835.22"
"26.10000","2.17543","2846.68"
"26.20000","2.18379","2856.18"
"26.30000","2.19186","2867.66"
"26.40000","2.19992","2876.1"
"26.50000","2.20839","2886.91"
"26.60000","2.21665","2896.96"
"26.70000","2.22512","2905.95"
"26.80000","2.23349","2917.5"
"26.90000","2.24205","2926.77"
"27.00000","2.25032","2936.62"
"27.10000","2.25838","2945.96"
"27.20000","2.26645","2955.61"
"27.30000","2.27501","2965.32"
"27.40000","2.28348","2975.34"
"27.50000","2.29174","2983.76"
"27.60000","2.30001","2993.33"
"27.70000","2.30888","3002.76"
"27.80000","2.31684","3012.39"
"27.90000","2.32470","3020.99"
"28.00000","2.33317","3030.58"
"28.10000","2.34204","3041"
"28.20000","2.35021","3050.21"
"28.30000","2.35847","3058.75"
"28.40000","2.36694","3069.03"
"28.50000","2.37490","3076.1"
"28.60000","2.38327","3083.49"
"28.70000","2.39173","3092.8"
"28.80000","2.40040","3104.45"
"28.90000","2.40867","3115.18"
"29.00000","2.41673","3124.74"
"29.10000","2.42520","3133.59"
"29.20000","2.43346","3142.42"
"29.30000","2.44173","3109.29"
"29.40000","2.44999","3095.67"
"29.50000","2.45856","3107.96"
"29.60000","2.46682","3118.54"
"29.70000","2.47529","3129.33"
"29.80000","2.48345","3138.42"
"29.90000","2.49162","3149.3"
"30.00000","2.49988","3159.39"
"30.10000","2.50825","3169.99"
"30.20000","2.51692","3181.03"
"30.30000","2.52538","3191.52"
"30.40000","2.53365","3200.49"
"30.50000","2.54181","3210.41"
"30.60000","2.54978","3219.21"
"30.70000","2.55824","3229.74"
"30.80000","2.56691","3239.07"
"30.90000","2.57558","3248.98"
"31.00000","2.58374","3259.05"
"31.10000","2.59171","3268.21"
"31.20000","2.59987","3277.74"
"31.30000","2.60844","3286.83"
"31.40000","2.61670","3296.09"
"31.50000","2.62517","3306.05"
"31.60000","2.63364","3314.94"
"31.70000","2.64190","3325.09"
"31.80000","2.65027","3334.69"
"31.90000","2.65843","3343.03"
"32.00000","2.66650","3351.81"
"32.10000","2.67486","3361.12"
"32.20000","2.68323","3370.51"
"32.30000","2.69179","3379.7"
"32.40000","2.70046","3389.22"
"32.50000","2.70883","3397.34"
"32.60000","2.71649","3405.97"
"32.70000","2.72475","3414.91"
"32.80000","2.73342","3424.06"
"32.90000","2.74209","3432.54"
"33.00000","2.75036","3440.95"
"33.10000","2.75852","3449.4"
"33.20000","2.76699","3458.74"
"33.30000","2.77495","3466.35"
"33.40000","2.78311","3474.07"
"33.50000","2.79188","3482.65"
"33.60000","2.80055","3491.97"
"33.70000","2.80861","3499.55"
"33.80000","2.81688","3508.25"
"33.90000","2.82504","3515.3"
"34.00000","2.83341","3523.84"
"34.10000","2.84147","3531.91"
"34.20000","2.85024","3540.14"
"34.30000","2.85861","3547.86"
"34.40000","2.86687","3556.6"
"34.50000","2.87524","3564.41"
"34.60000","2.88330","3570.78"
"34.70000","2.89157","3579.03"
"34.80000","2.89973","3587.01"
"34.90000","2.90840","3595.36"
"35.00000","2.91697","3603.01"
"35.10000","2.92543","3610.4"
"35.20000","2.93360","3617.92"
"35.30000","2.94146","3624.63"
"35.40000","2.94973","3632.73"
"35.50000","2.95829","3640.8"
"35.60000","2.96706","3649.75"
"35.70000","2.97553","3656.32"
"35.80000","2.98379","3664.65"
"35.90000","2.99176","3620.11"
"36.00000","2.99982","3605.98"
"36.10000","3.00829","3616.5"
"36.20000","3.01675","3625.65"
"36.30000","3.02522","3634.45"
"36.40000","3.03359","3644.01"
"36.50000","3.04205","3653.32"
"36.60000","3.05032","3662.09"
"36.70000","3.05828","3668.68"
"36.80000","3.06675","3677.92"
"36.90000","3.07511","3686.69"
"37.00000","3.08348","3696.07"
"37.10000","3.09205","3703.77"
"37.20000","3.10041","3711.4"
"37.30000","3.10848","3719.98"
"37.40000","3.11654","3727.01"
"37.50000","3.12480","3734.64"
"37.60000","3.13347","3709.42"
"37.70000","3.14194","3720.58"
"37.80000","3.15020","3729.58"
"37.90000","3.15827","3737.55"
"38.00000","3.16663","3746.26"
"38.10000","3.17480","3754.36"
"38.20000","3.18316","3762.44"
"38.30000","3.19193","3771.25"
"38.40000","3.20060","3779.75"
"38.50000","3.20836","3772.34"
"38.60000","3.21663","3779.13"
"38.70000","3.22499","3786.77"
"38.80000","3.23346","3794.35"
"38.90000","3.24193","3801.75"
"39.00000","3.25039","3808.52"
"39.10000","3.25876","3814.67"
"39.20000","3.26682","3823.13"
"39.30000","3.27509","3830.02"
"39.40000","3.28335","3836.7"
"39.50000","3.29172","3843.62"
"39.60000","3.29998","3850.16"
"39.70000","3.30855","3856.93"
"39.80000","3.31702","3862.71"
"39.90000","3.32528","3870.17"
"40.00000","3.33355","3876"
"40.10000","3.34151","3882.82"
"40.20000","3.34978","3888.53"
"40.30000","3.35834","3896.15"
"40.40000","3.36691","3902.7"
"40.50000","3.37528","3908.78"
"40.60000","3.38344","3914.14"
"40.70000","3.39161","3919.33"
"40.80000","3.39987","3924.34"
"40.90000","3.40834","3930.85"
"41.00000","3.41690","3936.92"
"41.10000","3.42527","3941.97"
"41.20000","3.43364","3947.16"
"41.30000","3.44190","3951.72"
"41.40000","3.44996","3956"
"41.50000","3.45823","3960.09"
"41.60000","3.46670","3964.54"
"41.70000","3.47496","3968.76"
"41.80000","3.48353","3971.97"
"41.90000","3.49220","3975.62"
"42.00000","3.50056","3978.04"
"42.10000","3.50832","3979.88"
"42.20000","3.51639","3982.12"
"42.30000","3.52506","3984.06"
"42.40000","3.53372","3986.05"
"42.50000","3.54189","3987.3"
"42.60000","3.55035","3987.17"
"42.70000","3.55852","3984.83"
"42.80000","3.56658","3982.16"
"42.90000","3.57475","3978.76"
"43.00000","3.58331","3973.07"
"43.10000","3.59208","3965.62"
"43.20000","3.60035","3952.31"
"43.30000","3.60831","3924.47"
"43.39000","3.61577","3595.98"
"43.39400","3.61617","3253.54"
"43.39800","3.61658","2850.17"
"43.40200","3.61708","2408.87"
"43.40400","3.61728","2190.3"