File: Data_Processing/Tensile-Data/Sequence_30.csv
General : Start date,"10/29/2024 10:20 AM"
General : End date,"10/29/2024 10:21 AM"
Specimen notes : Specimen note 1,"Day 2, purple, 215, batch 7, seq 30"
Test : Rate 1,"5.00000",mm/min

Time,Extension,Load
(s),(mm),(N)
"0.00000","0.00010","-0.24024"
"0.10000","0.00141","0.10922"
"0.20000","0.01068","12.05405"
"0.30000","0.02369","37.93779"
"0.40000","0.03276","54.79767"
"0.50000","0.04133","67.73367"
"0.60000","0.05009","82.45923"
"0.70000","0.05846","96.19755"
"0.80000","0.06652","109.058"
"0.90000","0.07499","123.437"
"1.00000","0.08376","136.636"
"1.10000","0.09213","151.336"
"1.20000","0.10049","166.414"
"1.30000","0.10866","178.717"
"1.40000","0.11682","191.843"
"1.50000","0.12498","205.318"
"1.60000","0.13335","219.927"
"1.70000","0.14202","235.006"
"1.80000","0.15048","249.819"
"1.90000","0.15875","262.975"
"2.00000","0.16691","276.346"
"2.10000","0.17508","289.065"
"2.20000","0.18324","303.683"
"2.30000","0.19171","317.946"
"2.40000","0.20028","331.779"
"2.50000","0.20874","345.935"
"2.60000","0.21701","359.552"
"2.70000","0.22527","373.547"
"2.80000","0.23354","387.304"
"2.90000","0.24170","400.797"
"3.00000","0.25027","415.176"
"3.10000","0.25884","429.23"
"3.20000","0.26730","443.278"
"3.30000","0.27557","457.45"
"3.40000","0.28353","470.383"
"3.50000","0.29170","483.606"
"3.60000","0.30016","497.041"
"3.70000","0.30853","511.207"
"3.80000","0.31679","523.933"
"3.90000","0.32536","537.594"
"4.00000","0.33373","550.368"
"4.10000","0.34159","563.899"
"4.20000","0.34985","576.789"
"4.30000","0.35832","590.447"
"4.40000","0.36699","604.464"
"4.50000","0.37536","617.547"
"4.60000","0.38382","629.134"
"4.70000","0.39189","642.735"
"4.80000","0.39965","654.866"
"4.90000","0.40801","667.764"
"5.00000","0.41668","680.777"
"5.10000","0.42545","693.86"
"5.20000","0.43361","707.123"
"5.30000","0.44168","719.263"
"5.40000","0.45025","732.569"
"5.50000","0.45851","746.154"
"5.60000","0.46688","758.248"
"5.70000","0.47534","771.435"
"5.80000","0.48401","784.383"
"5.90000","0.49248","798.019"
"6.00000","0.50054","809.749"
"6.10000","0.50850","820.637"
"6.20000","0.51677","833.568"
"6.30000","0.52503","846.098"
"6.40000","0.53350","858.017"
"6.50000","0.54207","870.849"
"6.60000","0.55053","883.273"
"6.70000","0.55880","895.61"
"6.80000","0.56686","907.156"
"6.90000","0.57503","918.66"
"7.00000","0.58329","931.084"
"7.10000","0.59186","943.589"
"7.20000","0.60033","955.321"
"7.30000","0.60869","967.077"
"7.40000","0.61696","980.214"
"7.50000","0.62492","991.472"
"7.60000","0.63319","1002.69"
"7.70000","0.64155","1014.91"
"7.80000","0.65032","1027.49"
"7.90000","0.65859","1038.9"
"8.00000","0.66675","1050.48"
"8.10000","0.67501","1061.89"
"8.20000","0.68338","1073.77"
"8.30000","0.69175","1086.14"
"8.40000","0.70011","1096.68"
"8.50000","0.70848","1108.15"
"8.60000","0.71695","1119.83"
"8.70000","0.72561","1132.98"
"8.80000","0.73378","1143.95"
"8.90000","0.74174","1154.15"
"9.00000","0.75001","1165.36"
"9.10000","0.75847","1176.56"
"9.20000","0.76714","1187.54"
"9.30000","0.77530","1198.89"
"9.40000","0.78367","1209.7"
"9.50000","0.79194","1221.13"
"9.60000","0.80000","1231.3"
"9.70000","0.80816","1241.47"
"9.80000","0.81703","1249.9"
"9.90000","0.82550","1261.13"
"10.00000","0.83366","1271.31"
"10.10000","0.84183","1281.19"
"10.20000","0.84999","1291.61"
"10.30000","0.85816","1300.81"
"10.40000","0.86642","1311.13"
"10.50000","0.87519","1320.97"
"10.60000","0.88346","1331.59"
"10.70000","0.89182","1341.21"
"10.80000","0.90009","1352.68"
"10.90000","0.90835","1362.02"
"11.00000","0.91672","1371.37"
"11.10000","0.92498","1381.98"
"11.20000","0.93355","1392.3"
"11.30000","0.94202","1402.92"
"11.40000","0.95048","1412.68"
"11.50000","0.95885","1421.3"
"11.60000","0.96671","1432.01"
"11.70000","0.97488","1441.26"
"11.80000","0.98314","1452.07"
"11.90000","0.99201","1461.9"
"12.00000","1.00058","1473.04"
"12.10000","1.00884","1481.62"
"12.20000","1.01691","1491.35"
"12.30000","1.02507","1500.61"
"12.40000","1.03344","1510.18"
"12.50000","1.04180","1519.87"
"12.60000","1.05037","1530.45"
"12.70000","1.05864","1540.41"
"12.80000","1.06700","1550.48"
"12.90000","1.07506","1559.74"
"13.00000","1.08313","1569.18"
"13.10000","1.09160","1578.99"
"13.20000","1.10016","1590.46"
"13.30000","1.10843","1600.05"
"13.40000","1.11679","1610.24"
"13.50000","1.12556","1619.55"
"13.60000","1.13363","1629.84"
"13.70000","1.14149","1638.27"
"13.80000","1.14975","1647.63"
"13.90000","1.15842","1657.86"
"14.00000","1.16699","1668.35"
"14.10000","1.17546","1677.97"
"14.20000","1.18362","1687.23"
"14.30000","1.19178","1695.87"
"14.40000","1.19995","1705.21"
"14.50000","1.20821","1715.74"
"14.60000","1.21708","1725.18"
"14.70000","1.22555","1734.97"
"14.80000","1.23371","1743.37"
"14.90000","1.24198","1753.74"
"15.00000","1.25014","1763.12"
"15.10000","1.25831","1771.8"
"15.20000","1.26667","1781.02"
"15.30000","1.27524","1791.58"
"15.40000","1.28381","1800.46"
"15.50000","1.29207","1810.46"
"15.60000","1.30024","1819.69"
"15.70000","1.30830","1828.95"
"15.80000","1.31657","1838.67"
"15.90000","1.32493","1848.14"
"16.00000","1.33350","1858.72"
"16.10000","1.34217","1868.65"
"16.20000","1.35053","1877.45"
"16.30000","1.35870","1886.84"
"16.40000","1.36656","1895.55"
"16.50000","1.37483","1904.54"
"16.60000","1.38359","1914.46"
"16.70000","1.39216","1923.41"
"16.80000","1.40043","1932.37"
"16.90000","1.40869","1941.91"
"17.00000","1.41676","1951.06"
"17.10000","1.42502","1960.55"
"17.20000","1.43329","1969.57"
"17.30000","1.44195","1978.96"
"17.40000","1.45042","1988.52"
"17.50000","1.45889","1998.41"
"17.60000","1.46705","2007.4"
"17.70000","1.47511","2016.23"
"17.80000","1.48328","2025.4"
"17.90000","1.49175","2034.28"
"18.00000","1.50011","2043.72"
"18.10000","1.50858","2051.63"
"18.20000","1.51725","2061.2"
"18.30000","1.52541","2069.63"
"18.40000","1.53337","2078.28"
"18.50000","1.54144","2087.04"
"18.60000","1.54990","2095.41"
"18.70000","1.55867","2105.14"
"18.80000","1.56704","2113.29"
"18.90000","1.57540","2121.87"
"19.00000","1.58367","2131.34"
"19.10000","1.59153","2139.6"
"19.20000","1.59980","2147.57"
"19.30000","1.60846","2156.96"
"19.40000","1.61713","2166.27"
"19.50000","1.62550","2175.33"
"19.60000","1.63356","2183.42"
"19.70000","1.64203","2192.17"
"19.80000","1.65019","2201.14"
"19.90000","1.65836","2209.19"
"20.00000","1.66703","2217.87"
"20.10000","1.67549","2227.34"
"20.20000","1.68376","2234.96"
"20.30000","1.69212","2243.73"
"20.40000","1.69999","2252.63"
"20.50000","1.70815","2260.34"
"20.60000","1.71652","2268.97"
"20.70000","1.72508","2277.29"
"20.80000","1.73375","2287.3"
"20.90000","1.74212","2294.71"
"21.00000","1.75038","2302.43"
"21.10000","1.75834","2311.6"
"21.20000","1.76651","2318.5"
"21.30000","1.77488","2326.86"
"21.40000","1.78344","2334.88"
"21.50000","1.79181","2343.72"
"21.60000","1.80028","2351.86"
"21.70000","1.80854","2361.5"
"21.80000","1.81670","2368.52"
"21.90000","1.82517","2377.08"
"22.00000","1.83364","2385.38"
"22.10000","1.84221","2393.78"
"22.20000","1.85047","2402.18"
"22.30000","1.85874","2410.55"
"22.40000","1.86700","2419.06"
"22.50000","1.87496","2426.65"
"22.60000","1.88343","2435.61"
"22.70000","1.89200","2443.79"
"22.80000","1.90026","2452.53"
"22.90000","1.90853","2460.31"
"23.00000","1.91709","2468.97"
"23.10000","1.92536","2477.02"
"23.20000","1.93332","2484.39"
"23.30000","1.94159","2493.05"
"23.40000","1.95016","2501.34"
"23.50000","1.95862","2510.55"
"23.60000","1.96689","2518.13"
"23.70000","1.97525","2526.64"
"23.80000","1.98342","2535.51"
"23.90000","1.99148","2541.45"
"24.00000","1.99985","2549.44"
"24.10000","2.00862","2559.02"
"24.20000","2.01718","2566.75"
"24.30000","2.02525","2575.68"
"24.40000","2.03341","2583.78"
"24.50000","2.04178","2591.18"
"24.60000","2.05014","2599.02"
"24.70000","2.05851","2607.18"
"24.80000","2.06687","2616.04"
"24.90000","2.07544","2624.7"
"25.00000","2.08381","2631.41"
"25.10000","2.09197","2640.54"
"25.20000","2.10014","2648.36"
"25.30000","2.10840","2656.87"
"25.40000","2.11677","2665.1"
"25.50000","2.12523","2674.31"
"25.60000","2.13370","2682.26"
"25.70000","2.14207","2690.85"
"25.80000","2.15033","2698.39"
"25.90000","2.15839","2705.06"
"26.00000","2.16656","2713.55"
"26.10000","2.17523","2722.31"
"26.20000","2.18369","2730.65"
"26.30000","2.19196","2738.51"
"26.40000","2.20022","2746.08"
"26.50000","2.20849","2754.47"
"26.60000","2.21655","2761.56"
"26.70000","2.22492","2769.01"
"26.80000","2.23339","2777.74"
"26.90000","2.24185","2785.88"
"27.00000","2.25022","2794.26"
"27.10000","2.25868","2802.42"
"27.20000","2.26705","2810.56"
"27.30000","2.27501","2818.26"
"27.40000","2.28348","2826.69"
"27.50000","2.29185","2834.97"
"27.60000","2.30021","2843.76"
"27.70000","2.30888","2852.06"
"27.80000","2.31735","2860.21"
"27.90000","2.32541","2866.74"
"28.00000","2.33327","2874.78"
"28.10000","2.34164","2883.19"
"28.20000","2.35051","2890.1"
"28.30000","2.35887","2898.97"
"28.40000","2.36704","2906.25"
"28.50000","2.37530","2912.99"
"28.60000","2.38357","2922.72"
"28.70000","2.39163","2930.49"
"28.80000","2.40010","2937.62"
"28.90000","2.40877","2946.14"
"29.00000","2.41723","2954"
"29.10000","2.42520","2961.31"
"29.20000","2.43336","2968.19"
"29.30000","2.44183","2976.03"
"29.40000","2.44979","2983.07"
"29.50000","2.45826","2990.53"
"29.60000","2.46682","3000"
"29.70000","2.47529","3007.54"
"29.80000","2.48366","3015.6"
"29.90000","2.49182","3023.07"
"30.00000","2.49988","3030.97"
"30.10000","2.50815","3038.65"
"30.20000","2.51672","3047.34"
"30.30000","2.52538","3055.08"
"30.40000","2.53385","3062.96"
"30.50000","2.54202","3070.85"
"30.60000","2.55018","3078.24"
"30.70000","2.55814","3085.86"
"30.80000","2.56661","3094.03"
"30.90000","2.57528","3102.07"
"31.00000","2.58384","3111.05"
"31.10000","2.59221","3117.46"
"31.20000","2.60038","3125.5"
"31.30000","2.60834","3132.58"
"31.40000","2.61680","3140.7"
"31.50000","2.62517","3147.68"
"31.60000","2.63374","3155.91"
"31.70000","2.64210","3163.06"
"31.80000","2.65047","3170.53"
"31.90000","2.65863","3177.64"
"32.00000","2.66660","3185.51"
"32.10000","2.67476","3191.43"
"32.20000","2.68343","3200.39"
"32.30000","2.69179","3208.38"
"32.40000","2.69986","3214.63"
"32.50000","2.70843","3222.91"
"32.60000","2.71679","3231.03"
"32.70000","2.72486","3237.47"
"32.80000","2.73312","3245.4"
"32.90000","2.74179","3253.17"
"33.00000","2.75046","3261.31"
"33.10000","2.75862","3268.47"
"33.20000","2.76719","3275.1"
"33.30000","2.77535","3283.56"
"33.40000","2.78332","3290.58"
"33.50000","2.79158","3298.03"
"33.60000","2.80025","3305.53"
"33.70000","2.80892","3313.22"
"33.80000","2.81708","3320.82"
"33.90000","2.82504","3327.54"
"34.00000","2.83341","3335.49"
"34.10000","2.84178","3342.71"
"34.20000","2.85024","3350.71"
"34.30000","2.85861","3357.83"
"34.40000","2.86718","3365.4"
"34.50000","2.87554","3372.62"
"34.60000","2.88350","3380.1"
"34.70000","2.89167","3386.84"
"34.80000","2.90003","3393.24"
"34.90000","2.90830","3401"
"35.00000","2.91677","3409.81"
"35.10000","2.92543","3416.84"
"35.20000","2.93380","3424.26"
"35.30000","2.94196","3431.31"
"35.40000","2.95013","3438.68"
"35.50000","2.95829","3445.03"
"35.60000","2.96676","3451.55"
"35.70000","2.97543","3459.92"
"35.80000","2.98359","3468.04"
"35.90000","2.99196","3474.64"
"36.00000","3.00022","3482.32"
"36.10000","3.00829","3488.67"
"36.20000","3.01665","3496.12"
"36.30000","3.02512","3503.38"
"36.40000","3.03369","3511.4"
"36.50000","3.04205","3518.93"
"36.60000","3.05052","3525.89"
"36.70000","3.05858","3532.96"
"36.80000","3.06665","3539.89"
"36.90000","3.07511","3547.03"
"37.00000","3.08338","3554.38"
"37.10000","3.09174","3560.6"
"37.20000","3.10041","3568.06"
"37.30000","3.10888","3574.75"
"37.40000","3.11704","3581.95"
"37.50000","3.12490","3588.3"
"37.60000","3.13317","3594.26"
"37.70000","3.14184","3601.9"
"37.80000","3.15031","3609.36"
"37.90000","3.15857","3616.58"
"38.00000","3.16704","3622.92"
"38.10000","3.17520","3629.35"
"38.20000","3.18326","3635.91"
"38.30000","3.19173","3642.65"
"38.40000","3.20050","3650.03"
"38.50000","3.20897","3657.57"
"38.60000","3.21693","3663.05"
"38.70000","3.22530","3670.26"
"38.80000","3.23376","3676.87"
"38.90000","3.24172","3682.83"
"39.00000","3.24999","3688.27"
"39.10000","3.25866","3695.41"
"39.20000","3.26692","3703.04"
"39.30000","3.27539","3709.34"
"39.40000","3.28365","3715.27"
"39.50000","3.29172","3720.12"
"39.60000","3.29978","3726.62"
"39.70000","3.30835","3732.75"
"39.80000","3.31712","3739.35"
"39.90000","3.32569","3746.53"
"40.00000","3.33385","3752.06"
"40.10000","3.34191","3757.05"
"40.20000","3.34998","3762.11"
"40.30000","3.35814","3766.65"
"40.40000","3.36681","3772.4"
"40.50000","3.37528","3779.02"
"40.60000","3.38374","3783.99"
"40.70000","3.39201","3788.5"
"40.80000","3.40017","3793.41"
"40.90000","3.40854","3798.9"
"41.00000","3.41680","3804.18"
"41.10000","3.42527","3808.65"
"41.20000","3.43374","3812.89"
"41.30000","3.44200","3817.03"
"41.40000","3.45057","3822.57"
"41.50000","3.45853","3825.08"
"41.60000","3.46660","3828.06"
"41.70000","3.47506","3831.76"
"41.80000","3.48353","3834.9"
"41.90000","3.49189","3838.18"
"42.00000","3.50046","3841.42"
"42.10000","3.50883","3843.28"
"42.20000","3.51679","3845.23"
"42.30000","3.52485","3846.27"
"42.40000","3.53332","3847.46"
"42.50000","3.54199","3849.09"
"42.60000","3.55025","3848.8"
"42.70000","3.55862","3848.81"
"42.80000","3.56678","3849.01"
"42.90000","3.57505","3846.12"
"43.00000","3.58311","3843.9"
"43.10000","3.59178","3840.38"
"43.20000","3.60045","3836.04"
"43.30000","3.60882","3830.27"
"43.40000","3.61678","3821.06"
"43.50000","3.62504","3808.37"
"43.60000","3.63331","3791.44"
"43.70000","3.64167","3763.1"
"43.80000","3.65014","3694.64"
"43.81800","3.65175","3437.9"
"43.82200","3.65216","3110.41"
"43.82600","3.65256","2722.62"
"43.83000","3.65296","2299.78"
"43.83200","3.65327","2091.2"