File: Data_Processing/Tensile-Data/Sequence_9.csv
General : Start date,"10/22/2024 9:35 AM"
General : End date,"10/22/2024 9:36 AM"
Specimen notes : Specimen note 1,"red, 200, batch 1, seq 9"
Test : Rate 1,"5.00000",mm/min

Time,Extension,Load
(s),(mm),(N)
"0.00000","0.00000","0.95036"
"0.10000","0.00091","0.99110"
"0.20000","0.00776","7.80777"
"0.30000","0.02217","34.43351"
"0.40000","0.03256","56.46309"
"0.50000","0.04082","71.62664"
"0.60000","0.04949","88.04853"
"0.70000","0.05796","103.326"
"0.80000","0.06652","116.409"
"0.90000","0.07499","130.32"
"1.00000","0.08366","133.74"
"1.10000","0.09213","149.58"
"1.20000","0.10009","164.666"
"1.30000","0.10835","178.898"
"1.40000","0.11652","192.642"
"1.50000","0.12498","207.794"
"1.60000","0.13345","222.656"
"1.70000","0.14202","237.055"
"1.80000","0.15059","252.175"
"1.90000","0.15895","267.293"
"2.00000","0.16691","281.065"
"2.10000","0.17498","294.116"
"2.20000","0.18334","307.847"
"2.30000","0.19181","322.663"
"2.40000","0.20008","336.276"
"2.50000","0.20844","350.854"
"2.60000","0.21691","364.992"
"2.70000","0.22487","378.729"
"2.80000","0.23303","392.507"
"2.90000","0.24140","406.418"
"3.00000","0.25017","421.734"
"3.10000","0.25864","436.407"
"3.20000","0.26700","450.036"
"3.30000","0.27517","464.688"
"3.40000","0.28323","477.5"
"3.50000","0.29150","491.749"
"3.60000","0.30006","506.721"
"3.70000","0.30873","520.599"
"3.80000","0.31710","535.099"
"3.90000","0.32506","548.082"
"4.00000","0.33332","562.132"
"4.10000","0.34169","575.69"
"4.20000","0.34985","590.173"
"4.30000","0.35832","604.357"
"4.40000","0.36699","618.461"
"4.50000","0.37546","632.897"
"4.60000","0.38382","647.695"
"4.70000","0.39189","660.665"
"4.80000","0.40005","675.35"
"4.90000","0.40832","688.219"
"5.00000","0.41678","703.234"
"5.10000","0.42535","717.392"
"5.20000","0.43382","730.765"
"5.30000","0.44218","744.506"
"5.40000","0.45014","757.989"
"5.50000","0.45821","771.719"
"5.60000","0.46647","785.328"
"5.70000","0.47494","798.908"
"5.80000","0.48351","813.232"
"5.90000","0.49187","827.143"
"6.00000","0.49994","840.865"
"6.10000","0.50800","853.233"
"6.20000","0.51637","867.134"
"6.30000","0.52503","881.466"
"6.40000","0.53370","895.734"
"6.50000","0.54207","908.899"
"6.60000","0.55013","922.594"
"6.70000","0.55850","936.556"
"6.80000","0.56686","950.064"
"6.90000","0.57513","963.732"
"7.00000","0.58360","977.174"
"7.10000","0.59196","990.83"
"7.20000","0.60033","1004.16"
"7.30000","0.60869","1017.42"
"7.40000","0.61696","1030.84"
"7.50000","0.62482","1042.5"
"7.60000","0.63319","1056.81"
"7.70000","0.64175","1070.17"
"7.80000","0.65022","1084.31"
"7.90000","0.65859","1097.25"
"8.00000","0.66705","1110.72"
"8.10000","0.67512","1124.79"
"8.20000","0.68328","1136.13"
"8.30000","0.69144","1149.57"
"8.40000","0.70001","1163.18"
"8.50000","0.70868","1177.55"
"8.60000","0.71695","1190.82"
"8.70000","0.72511","1203.87"
"8.80000","0.73348","1217.23"
"8.90000","0.74174","1231.25"
"9.00000","0.74990","1242.91"
"9.10000","0.75847","1257.73"
"9.20000","0.76694","1270.15"
"9.30000","0.77510","1282.89"
"9.40000","0.78317","1295.86"
"9.50000","0.79143","1308.12"
"9.60000","0.79980","1320.61"
"9.70000","0.80806","1334.25"
"9.80000","0.81653","1347.53"
"9.90000","0.82530","1360.59"
"10.00000","0.83376","1372.7"
"10.10000","0.84193","1386.08"
"10.20000","0.84989","1398.15"
"10.30000","0.85806","1410.69"
"10.40000","0.86662","1423.75"
"10.50000","0.87529","1437.32"
"10.60000","0.88376","1449.71"
"10.70000","0.89212","1462.82"
"10.80000","0.90019","1475.24"
"10.90000","0.90815","1488.08"
"11.00000","0.91642","1501.4"
"11.10000","0.92508","1512.7"
"11.20000","0.93345","1526.15"
"11.30000","0.94202","1539"
"11.40000","0.95058","1551.07"
"11.50000","0.95845","1562.27"
"11.60000","0.96641","1574.27"
"11.70000","0.97478","1586.58"
"11.80000","0.98354","1600.36"
"11.90000","0.99161","1612.43"
"12.00000","0.99997","1625.69"
"12.10000","1.00874","1637.55"
"12.20000","1.01721","1649.37"
"12.30000","1.02487","1660.47"
"12.40000","1.03303","1672.48"
"12.50000","1.04170","1686.58"
"12.60000","1.05017","1698.73"
"12.70000","1.05853","1710.2"
"12.80000","1.06690","1722.41"
"12.90000","1.07506","1734.81"
"13.00000","1.08303","1746.15"
"13.10000","1.09129","1758.12"
"13.20000","1.10016","1770.33"
"13.30000","1.10883","1782.8"
"13.40000","1.11710","1794.88"
"13.50000","1.12516","1807.23"
"13.60000","1.13342","1818.82"
"13.70000","1.14159","1830.71"
"13.80000","1.14985","1842.07"
"13.90000","1.15852","1854.47"
"14.00000","1.16699","1866.4"
"14.10000","1.17535","1878.15"
"14.20000","1.18342","1889.32"
"14.30000","1.19168","1900.45"
"14.40000","1.19975","1912.05"
"14.50000","1.20811","1923.59"
"14.60000","1.21678","1935.99"
"14.70000","1.22545","1947.32"
"14.80000","1.23381","1959.23"
"14.90000","1.24188","1969.83"
"15.00000","1.24984","1980.83"
"15.10000","1.25811","1992.21"
"15.20000","1.26677","2003.1"
"15.30000","1.27534","2015.35"
"15.40000","1.28381","2026.44"
"15.50000","1.29187","2038.17"
"15.60000","1.29994","2049.27"
"15.70000","1.30810","2061.22"
"15.80000","1.31657","2072.2"
"15.90000","1.32513","2083.52"
"16.00000","1.33370","2095.37"
"16.10000","1.34197","2106.66"
"16.20000","1.35023","2116.97"
"16.30000","1.35830","2128.26"
"16.40000","1.36656","2139.49"
"16.50000","1.37503","2150.96"
"16.60000","1.38329","2162.48"
"16.70000","1.39166","2172.49"
"16.80000","1.40033","2184.26"
"16.90000","1.40879","2196.04"
"17.00000","1.41665","2206.71"
"17.10000","1.42482","2217.46"
"17.20000","1.43339","2228.11"
"17.30000","1.44205","2240.4"
"17.40000","1.45042","2251.34"
"17.50000","1.45858","2261.81"
"17.60000","1.46685","2273.23"
"17.70000","1.47501","2284.16"
"17.80000","1.48318","2294.63"
"17.90000","1.49185","2306.06"
"18.00000","1.50051","2317.56"
"18.10000","1.50878","2328.23"
"18.20000","1.51684","2339.68"
"18.30000","1.52511","2349.86"
"18.40000","1.53347","2361.05"
"18.50000","1.54154","2371.43"
"18.60000","1.55011","2382.12"
"18.70000","1.55867","2393.34"
"18.80000","1.56694","2403.47"
"18.90000","1.57510","2414.14"
"19.00000","1.58306","2423.81"
"19.10000","1.59143","2434.84"
"19.20000","1.59970","2445.65"
"19.30000","1.60826","2455.94"
"19.40000","1.61683","2467.97"
"19.50000","1.62540","2479.01"
"19.60000","1.63366","2489.13"
"19.70000","1.64173","2499.91"
"19.80000","1.64979","2510.54"
"19.90000","1.65816","2519.61"
"20.00000","1.66693","2531.94"
"20.10000","1.67549","2541.65"
"20.20000","1.68376","2551.89"
"20.30000","1.69172","2562.58"
"20.40000","1.69988","2572.81"
"20.50000","1.70825","2582.85"
"20.60000","1.71672","2593.46"
"20.70000","1.72518","2604.03"
"20.80000","1.73365","2615.16"
"20.90000","1.74212","2625.77"
"21.00000","1.75028","2636.08"
"21.10000","1.75834","2645.47"
"21.20000","1.76661","2654.69"
"21.30000","1.77518","2665.52"
"21.40000","1.78354","2675.69"
"21.50000","1.79191","2598.79"
"21.60000","1.80048","2614.6"
"21.70000","1.80864","2626.46"
"21.80000","1.81660","2636.9"
"21.90000","1.82487","2647.02"
"22.00000","1.83334","2658.66"
"22.10000","1.84180","2670.02"
"22.20000","1.85017","2682.67"
"22.30000","1.85833","2693.14"
"22.40000","1.86670","2704.21"
"22.50000","1.87486","2714.93"
"22.60000","1.88293","2725.2"
"22.70000","1.89180","2736.73"
"22.80000","1.90036","2748.91"
"22.90000","1.90843","2759.67"
"23.00000","1.91659","2768.9"
"23.10000","1.92526","2779.01"
"23.20000","1.93352","2790.46"
"23.30000","1.94189","2799.88"
"23.40000","1.95016","2811.85"
"23.50000","1.95852","2822.04"
"23.60000","1.96699","2832.78"
"23.70000","1.97525","2843.64"
"23.80000","1.98332","2852.4"
"23.90000","1.99168","2862.42"
"24.00000","1.99985","2873.3"
"24.10000","2.00831","2884.3"
"24.20000","2.01698","2894.98"
"24.30000","2.02555","2904.96"
"24.40000","2.03371","2915.05"
"24.50000","2.04168","2923.72"
"24.60000","2.04974","2933.06"
"24.70000","2.05821","2944"
"24.80000","2.06677","2954.48"
"24.90000","2.07514","2964.34"
"25.00000","2.08351","2973.67"
"25.10000","2.09157","2983.68"
"25.20000","2.09973","2992.37"
"25.30000","2.10820","3003.78"
"25.40000","2.11677","3012.98"
"25.50000","2.12523","3022.88"
"25.60000","2.13370","3032.87"
"25.70000","2.14197","3042.15"
"25.80000","2.15023","3051.11"
"25.90000","2.15809","3059.58"
"26.00000","2.16666","3069.71"
"26.10000","2.17503","3080.19"
"26.20000","2.18339","3089.33"
"26.30000","2.19196","3099.34"
"26.40000","2.20053","3108.29"
"26.50000","2.20869","3117.26"
"26.60000","2.21645","3125.59"
"26.70000","2.22482","3135.01"
"26.80000","2.23359","3144.68"
"26.90000","2.24205","3154.44"
"27.00000","2.25032","3163.1"
"27.10000","2.25858","3171.88"
"27.20000","2.26645","3180.21"
"27.30000","2.27461","3188.7"
"27.40000","2.28328","3197.93"
"27.50000","2.29195","3206.97"
"27.60000","2.30031","3216.89"
"27.70000","2.30848","3225.1"
"27.80000","2.31654","3233.61"
"27.90000","2.32501","3243.44"
"28.00000","2.33307","3252.03"
"28.10000","2.34164","3260.89"
"28.20000","2.35010","3196.5"
"28.30000","2.35857","3208.83"
"28.40000","2.36704","3219.75"
"28.50000","2.37510","3229.49"
"28.60000","2.38306","3239.57"
"28.70000","2.39143","3248.85"
"28.80000","2.40010","3259.18"
"28.90000","2.40877","3268.94"
"29.00000","2.41723","3279.71"
"29.10000","2.42550","3290.39"
"29.20000","2.43356","3300.25"
"29.30000","2.44142","3309.42"
"29.40000","2.44979","3318.04"
"29.50000","2.45836","3327.49"
"29.60000","2.46723","3338.07"
"29.70000","2.47539","3346.63"
"29.80000","2.48345","3355.63"
"29.90000","2.49142","3364.75"
"30.00000","2.49978","3374.97"
"30.10000","2.50835","3383.9"
"30.20000","2.51692","3393.11"
"30.30000","2.52538","3401.71"
"30.40000","2.53365","3410.63"
"30.50000","2.54171","3419.71"
"30.60000","2.54978","3428.95"
"30.70000","2.55804","3436.88"
"30.80000","2.56671","3446.71"
"30.90000","2.57518","3456.41"
"31.00000","2.58344","3465.06"
"31.10000","2.59201","3472.91"
"31.20000","2.60038","3482.75"
"31.30000","2.60824","3491.02"
"31.40000","2.61630","3498.13"
"31.50000","2.62487","3506.52"
"31.60000","2.63364","3515.86"
"31.70000","2.64180","3524.71"
"31.80000","2.65017","3532.75"
"31.90000","2.65833","3541.45"
"32.00000","2.66660","3549.98"
"32.10000","2.67476","3557.84"
"32.20000","2.68343","3565.77"
"32.30000","2.69210","3574.55"
"32.40000","2.70036","3582.68"
"32.50000","2.70843","3589.87"
"32.60000","2.71689","3597.14"
"32.70000","2.72526","3604.22"
"32.80000","2.73342","3611.62"
"32.90000","2.74179","3618.46"
"33.00000","2.75036","3626.75"
"33.10000","2.75862","3634.6"
"33.20000","2.76689","3641.6"
"33.30000","2.77495","3649.18"
"33.40000","2.78311","3656.6"
"33.50000","2.79148","3662.65"
"33.60000","2.80005","3670.36"
"33.70000","2.80851","3678.08"
"33.80000","2.81708","3685.61"
"33.90000","2.82545","3692.09"
"34.00000","2.83351","3700.01"
"34.10000","2.84168","3706.76"
"34.20000","2.85004","3713.05"
"34.30000","2.85871","3721.29"
"34.40000","2.86718","3728.19"
"34.50000","2.87534","3735.06"
"34.60000","2.88340","3741.79"
"34.70000","2.89147","3748.1"
"34.80000","2.89983","3754.15"
"34.90000","2.90820","3760.82"
"35.00000","2.91687","3768.68"
"35.10000","2.92523","3775.54"
"35.20000","2.93370","3782.56"
"35.30000","2.94186","3790.34"
"35.40000","2.94993","3795.45"
"35.50000","2.95829","3802.62"
"35.60000","2.96666","3809.46"
"35.70000","2.97492","3815.65"
"35.80000","2.98349","3822.11"
"35.90000","2.99206","3764.45"
"36.00000","3.00022","3759.39"
"36.10000","3.00819","3767.33"
"36.20000","3.01645","3774.11"
"36.30000","3.02512","3783.45"
"36.40000","3.03359","3791.69"
"36.50000","3.04185","3799.33"
"36.60000","3.05032","3806.55"
"36.70000","3.05848","3814.68"
"36.80000","3.06644","3820.85"
"36.90000","3.07471","3827.66"
"37.00000","3.08358","3835.72"
"37.10000","3.09215","3843.59"
"37.20000","3.10031","3850.54"
"37.30000","3.10848","3856.83"
"37.40000","3.11694","3863.5"
"37.50000","3.12501","3869.95"
"37.60000","3.13327","3851.65"
"37.70000","3.14184","3837.3"
"37.80000","3.15020","3844.99"
"37.90000","3.15867","3853.69"
"38.00000","3.16673","3861.01"
"38.10000","3.17490","3867.19"
"38.20000","3.18306","3874.22"
"38.30000","3.19133","3881.58"
"38.40000","3.20010","3888.43"
"38.50000","3.20887","3896.08"
"38.60000","3.21723","3902.82"
"38.70000","3.22509","3908.52"
"38.80000","3.23306","3913.58"
"38.90000","3.24122","3919.92"
"39.00000","3.24999","3926.1"
"39.10000","3.25856","3932.03"
"39.20000","3.26712","3938.25"
"39.30000","3.27529","3943.84"
"39.40000","3.28335","3947.43"
"39.50000","3.29162","3952.87"
"39.60000","3.29998","3958.05"
"39.70000","3.30845","3962.51"
"39.80000","3.31692","3966.74"
"39.90000","3.32559","3971.13"
"40.00000","3.33395","3974.88"
"40.10000","3.34171","3976.86"
"40.20000","3.34978","3978.91"
"40.30000","3.35824","3981.38"
"40.40000","3.36671","3984.28"
"40.50000","3.37507","3986.56"
"40.60000","3.38364","3988.02"
"40.70000","3.39221","3988.44"
"40.80000","3.40007","3988.31"
"40.90000","3.40803","3987.14"
"41.00000","3.41650","3984.98"
"41.10000","3.42537","3983.38"
"41.20000","3.43374","3979"
"41.30000","3.44190","3971.69"
"41.40000","3.45027","3962.5"
"41.50000","3.45823","3947.36"
"41.60000","3.46629","3920.12"
"41.70000","3.47496","3778.28"
"41.70600","3.47557","3481.34"
"41.71000","3.47597","3125.74"
"41.71400","3.47637","2709.93"
"41.71800","3.47678","2272.72"