File: Data_Processing/Tensile-Data/Sequence_24.csv
General : Start date,"10/29/2024 10:04 AM"
General : End date,"10/29/2024 10:05 AM"
Specimen notes : Specimen note 1,"Day 2, purple, 215, batch 10, seq 24"
Test : Rate 1,"5.00000",mm/min

Time,Extension,Load
(s),(mm),(N)
"0.00000","0.00010","0.65782"
"0.10000","0.00292","0.94851"
"0.20000","0.01522","20.75209"
"0.30000","0.02721","44.42316"
"0.40000","0.03548","59.67447"
"0.50000","0.04385","73.44804"
"0.60000","0.05251","88.66644"
"0.70000","0.06128","103.923"
"0.80000","0.06995","118.031"
"0.90000","0.07852","132.436"
"1.00000","0.08688","146.27"
"1.10000","0.09505","159.139"
"1.20000","0.10331","171.584"
"1.30000","0.11148","183.888"
"1.40000","0.12015","197.464"
"1.50000","0.12861","210.149"
"1.60000","0.13668","224.461"
"1.70000","0.14494","236.15"
"1.80000","0.15331","249.17"
"1.90000","0.16157","261.954"
"2.00000","0.16974","273.954"
"2.10000","0.17810","287.07"
"2.20000","0.18677","300.552"
"2.30000","0.19524","312.44"
"2.40000","0.20340","324.66"
"2.50000","0.21147","337.088"
"2.60000","0.21953","348.541"
"2.70000","0.22800","361.462"
"2.80000","0.23646","372.744"
"2.90000","0.24513","385.029"
"3.00000","0.25370","396.914"
"3.10000","0.26186","408.359"
"3.20000","0.26972","418.979"
"3.30000","0.27799","429.395"
"3.40000","0.28656","441.875"
"3.50000","0.29512","453.056"
"3.60000","0.30359","463.825"
"3.70000","0.31206","475.681"
"3.80000","0.32012","485.425"
"3.90000","0.32818","496.089"
"4.00000","0.33625","506.215"
"4.10000","0.34492","517.019"
"4.20000","0.35348","529.705"
"4.30000","0.36185","539.681"
"4.40000","0.37022","550.926"
"4.50000","0.37848","560.775"
"4.60000","0.38644","570.659"
"4.70000","0.39471","580.092"
"4.80000","0.40328","591.401"
"4.90000","0.41174","600.229"
"5.00000","0.42011","609.193"
"5.10000","0.42837","618.093"
"5.20000","0.43664","625.232"
"5.30000","0.44460","633.521"
"5.40000","0.45297","643.542"
"5.50000","0.46174","653.288"
"5.60000","0.47030","661.765"
"5.70000","0.47867","669.095"
"5.80000","0.48693","678.096"
"5.90000","0.49490","687.63"
"6.00000","0.50306","694.938"
"6.10000","0.51143","703.705"
"6.20000","0.51999","712.64"
"6.30000","0.52856","721.2"
"6.40000","0.53683","729.573"
"6.50000","0.54499","737.791"
"6.60000","0.55316","746.008"
"6.70000","0.56132","754.798"
"6.80000","0.56969","762.719"
"6.90000","0.57825","772.941"
"7.00000","0.58672","780.578"
"7.10000","0.59498","790.165"
"7.20000","0.60335","797.458"
"7.30000","0.61162","806.839"
"7.40000","0.61978","815.712"
"7.50000","0.62825","824.029"
"7.60000","0.63681","833.505"
"7.70000","0.64518","841.728"
"7.80000","0.65345","849.579"
"7.90000","0.66151","857.556"
"8.00000","0.66957","865.561"
"8.10000","0.67794","873.044"
"8.20000","0.68651","881.251"
"8.30000","0.69497","891.518"
"8.40000","0.70344","900.231"
"8.50000","0.71180","908.96"
"8.60000","0.71987","916.724"
"8.70000","0.72803","924.873"
"8.80000","0.73660","934.869"
"8.90000","0.74497","941.768"
"9.00000","0.75313","949.76"
"9.10000","0.76170","959.208"
"9.20000","0.77016","968.287"
"9.30000","0.77823","976.083"
"9.40000","0.78629","984.058"
"9.50000","0.79476","992.783"
"9.60000","0.80353","1001.7"
"9.70000","0.81169","1011.24"
"9.80000","0.81986","1018.92"
"9.90000","0.82832","1027.35"
"10.00000","0.83669","1035.3"
"10.10000","0.84465","1044.24"
"10.20000","0.85302","1052.16"
"10.30000","0.86189","1060.98"
"10.40000","0.87025","1070.36"
"10.50000","0.87852","1078.6"
"10.60000","0.88668","1087.19"
"10.70000","0.89505","1094.64"
"10.80000","0.90331","1102.81"
"10.90000","0.91148","1110.91"
"11.00000","0.92004","1119.32"
"11.10000","0.92831","1128.59"
"11.20000","0.93668","1136.21"
"11.30000","0.94464","1145.16"
"11.40000","0.95290","1152.81"
"11.50000","0.96127","1161.96"
"11.60000","0.96974","1169.78"
"11.70000","0.97830","1179.47"
"11.80000","0.98677","1188.3"
"11.90000","0.99503","1196.18"
"12.00000","1.00340","1205.35"
"12.10000","1.01136","1212.79"
"12.20000","1.01963","1221.59"
"12.30000","1.02840","1231.02"
"12.40000","1.03686","1240.15"
"12.50000","1.04523","1248.88"
"12.60000","1.05339","1258.21"
"12.70000","1.06146","1266.61"
"12.80000","1.06972","1274.88"
"12.90000","1.07799","1282.53"
"13.00000","1.08666","1292.13"
"13.10000","1.09512","1300.72"
"13.20000","1.10369","1309.03"
"13.30000","1.11206","1318.31"
"13.40000","1.12002","1326.91"
"13.50000","1.12808","1335.31"
"13.60000","1.13645","1344.08"
"13.70000","1.14471","1352.82"
"13.80000","1.15278","1362"
"13.90000","1.16114","1370.05"
"14.00000","1.16981","1379.47"
"14.10000","1.17798","1387.45"
"14.20000","1.18604","1396.13"
"14.30000","1.19471","1405.47"
"14.40000","1.20327","1415.49"
"14.50000","1.21164","1423.19"
"14.60000","1.22011","1432.02"
"14.70000","1.22847","1440.18"
"14.80000","1.23644","1448.5"
"14.90000","1.24450","1456.36"
"15.00000","1.25327","1465.12"
"15.10000","1.26194","1474.36"
"15.20000","1.27010","1482.81"
"15.30000","1.27826","1491.2"
"15.40000","1.28663","1499.45"
"15.50000","1.29490","1507.48"
"15.60000","1.30326","1516.34"
"15.70000","1.31173","1524.78"
"15.80000","1.32020","1533.76"
"15.90000","1.32856","1542.86"
"16.00000","1.33683","1550.96"
"16.10000","1.34489","1559.64"
"16.20000","1.35315","1567.57"
"16.30000","1.36122","1576.2"
"16.40000","1.36958","1584.59"
"16.50000","1.37835","1593.01"
"16.60000","1.38692","1601.83"
"16.70000","1.39519","1609.6"
"16.80000","1.40325","1618.37"
"16.90000","1.41121","1626.02"
"17.00000","1.41988","1634.61"
"17.10000","1.42855","1644.35"
"17.20000","1.43691","1652.19"
"17.30000","1.44518","1661.13"
"17.40000","1.45314","1669.49"
"17.50000","1.46121","1678.3"
"17.60000","1.46967","1687.27"
"17.70000","1.47834","1694.85"
"17.80000","1.48681","1703.51"
"17.90000","1.49517","1710.97"
"18.00000","1.50344","1718.95"
"18.10000","1.51180","1726.9"
"18.20000","1.51977","1734.76"
"18.30000","1.52803","1742.74"
"18.40000","1.53660","1751.77"
"18.50000","1.54486","1759.23"
"18.60000","1.55343","1768.17"
"18.70000","1.56200","1776.07"
"18.80000","1.57006","1784.57"
"18.90000","1.57792","1793.14"
"19.00000","1.58629","1801.81"
"19.10000","1.59506","1810.09"
"19.20000","1.60363","1819.81"
"19.30000","1.61189","1826.52"
"19.40000","1.62016","1835.23"
"19.50000","1.62812","1842.92"
"19.60000","1.63618","1851.04"
"19.70000","1.64475","1858.91"
"19.80000","1.65342","1867.73"
"19.90000","1.66189","1875.8"
"20.00000","1.66995","1883.36"
"20.10000","1.67801","1891.08"
"20.20000","1.68638","1899.25"
"20.30000","1.69464","1907.16"
"20.40000","1.70311","1915.27"
"20.50000","1.71168","1923.89"
"20.60000","1.72004","1931.06"
"20.70000","1.72841","1939.33"
"20.80000","1.73657","1946.8"
"20.90000","1.74474","1954.37"
"21.00000","1.75310","1960.85"
"21.10000","1.76167","1969.63"
"21.20000","1.77024","1977.74"
"21.30000","1.77860","1985.17"
"21.40000","1.78707","1992.41"
"21.50000","1.79524","2001.01"
"21.60000","1.80320","2008.32"
"21.70000","1.81136","2015.36"
"21.80000","1.81993","2023.79"
"21.90000","1.82870","2030.43"
"22.00000","1.83696","2038.59"
"22.10000","1.84493","2045.99"
"22.20000","1.85309","2054.68"
"22.30000","1.86126","2061.85"
"22.40000","1.86972","2068.78"
"22.50000","1.87819","2077.67"
"22.60000","1.88676","2085.39"
"22.70000","1.89492","2092.38"
"22.80000","1.90339","2100.66"
"22.90000","1.91145","2108.25"
"23.00000","1.91972","2116.03"
"23.10000","1.92818","2123.76"
"23.20000","1.93665","2131.55"
"23.30000","1.94481","2139.83"
"23.40000","1.95348","2146.69"
"23.50000","1.96195","2154.71"
"23.60000","1.97001","2161.49"
"23.70000","1.97797","2169.59"
"23.80000","1.98624","2177.35"
"23.90000","1.99501","2186.01"
"24.00000","2.00337","2194"
"24.10000","2.01174","2201.33"
"24.20000","2.02011","2208.97"
"24.30000","2.02827","2216.71"
"24.40000","2.03633","2223.74"
"24.50000","2.04480","2232.34"
"24.60000","2.05347","2239.78"
"24.70000","2.06173","2247.84"
"24.80000","2.06990","2255.4"
"24.90000","2.07826","2262.23"
"25.00000","2.08663","2270.89"
"25.10000","2.09469","2277.15"
"25.20000","2.10316","2284.76"
"25.30000","2.11173","2293.41"
"25.40000","2.12009","2300.92"
"25.50000","2.12836","2307.76"
"25.60000","2.13642","2315.7"
"25.70000","2.14469","2323.69"
"25.80000","2.15315","2331.81"
"25.90000","2.16132","2339.74"
"26.00000","2.16999","2347.65"
"26.10000","2.17855","2356.05"
"26.20000","2.18702","2363.09"
"26.30000","2.19508","2371.06"
"26.40000","2.20284","2378.28"
"26.50000","2.21121","2385.35"
"26.60000","2.21998","2394.66"
"26.70000","2.22885","2402.03"
"26.80000","2.23701","2409.46"
"26.90000","2.24498","2416.18"
"27.00000","2.25294","2423.74"
"27.10000","2.26131","2432.06"
"27.20000","2.26977","2440.3"
"27.30000","2.27844","2448.32"
"27.40000","2.28681","2456"
"27.50000","2.29517","2463.96"
"27.60000","2.30344","2471.93"
"27.70000","2.31150","2479.42"
"27.80000","2.31966","2487.32"
"27.90000","2.32813","2494.49"
"28.00000","2.33640","2504.16"
"28.10000","2.34496","2510.83"
"28.20000","2.35363","2519.89"
"28.30000","2.36200","2525.91"
"28.40000","2.36986","2533.61"
"28.50000","2.37792","2540.96"
"28.60000","2.38639","2548.86"
"28.70000","2.39506","2557.09"
"28.80000","2.40352","2563.7"
"28.90000","2.41189","2572.53"
"29.00000","2.42006","2579.01"
"29.10000","2.42792","2586.81"
"29.20000","2.43608","2594.3"
"29.30000","2.44505","2602.93"
"29.40000","2.45372","2610.56"
"29.50000","2.46188","2618.32"
"29.60000","2.46985","2625.97"
"29.70000","2.47831","2633.75"
"29.80000","2.48638","2640.62"
"29.90000","2.49474","2647.61"
"30.00000","2.50331","2656.58"
"30.10000","2.51178","2663.9"
"30.20000","2.52004","2671.91"
"30.30000","2.52831","2678.42"
"30.40000","2.53627","2686.69"
"30.50000","2.54474","2694.05"
"30.60000","2.55300","2701.32"
"30.70000","2.56157","2709.21"
"30.80000","2.57024","2717.42"
"30.90000","2.57860","2724.55"
"31.00000","2.58667","2731.86"
"31.10000","2.59463","2738.87"
"31.20000","2.60269","2746.91"
"31.30000","2.61136","2755.32"
"31.40000","2.62003","2763.47"
"31.50000","2.62860","2772.97"
"31.60000","2.63686","2778.82"
"31.70000","2.64482","2785.99"
"31.80000","2.65299","2793.07"
"31.90000","2.66156","2801.33"
"32.00000","2.67002","2808.87"
"32.10000","2.67839","2815.86"
"32.20000","2.68706","2823.77"
"32.30000","2.69542","2830.78"
"32.40000","2.70359","2838.13"
"32.50000","2.71145","2846.07"
"32.60000","2.71982","2853.25"
"32.70000","2.72828","2861.79"
"32.80000","2.73665","2868.83"
"32.90000","2.74491","2876.78"
"33.00000","2.75348","2884.19"
"33.10000","2.76164","2892.25"
"33.20000","2.76971","2899.45"
"33.30000","2.77787","2906.88"
"33.40000","2.78654","2914.08"
"33.50000","2.79491","2922.2"
"33.60000","2.80327","2929.36"
"33.70000","2.81174","2936.23"
"33.80000","2.81970","2944.06"
"33.90000","2.82777","2950.99"
"34.00000","2.83633","2957.88"
"34.10000","2.84530","2966.55"
"34.20000","2.85367","2973.75"
"34.30000","2.86173","2981.47"
"34.40000","2.87000","2988.77"
"34.50000","2.87836","2996.42"
"34.60000","2.88663","3003.72"
"34.70000","2.89510","3011.39"
"34.80000","2.90356","3019.66"
"34.90000","2.91193","3026.45"
"35.00000","2.92009","3034.59"
"35.10000","2.92836","3041.68"
"35.20000","2.93652","3048.36"
"35.30000","2.94469","3055.61"
"35.40000","2.95315","3063.65"
"35.50000","2.96172","3072.18"
"35.60000","2.97029","3078.45"
"35.70000","2.97865","3086"
"35.80000","2.98672","3092.73"
"35.90000","2.99468","3100.3"
"36.00000","3.00284","3106.5"
"36.10000","3.01121","3113.86"
"36.20000","3.01988","3121.86"
"36.30000","3.02845","3128.97"
"36.40000","3.03661","3136.12"
"36.50000","3.04467","3142.82"
"36.60000","3.05294","3150.76"
"36.70000","3.06140","3158.28"
"36.80000","3.07007","3165.39"
"36.90000","3.07854","3172.97"
"37.00000","3.08680","3180.12"
"37.10000","3.09527","3187.33"
"37.20000","3.10334","3193.61"
"37.30000","3.11160","3201.08"
"37.40000","3.11987","3208.07"
"37.50000","3.12823","3216.5"
"37.60000","3.13670","3224.86"
"37.70000","3.14527","3230.66"
"37.80000","3.15383","3237.9"
"37.90000","3.16169","3245.13"
"38.00000","3.16976","3251.82"
"38.10000","3.17822","3259.34"
"38.20000","3.18679","3267.18"
"38.30000","3.19506","3274"
"38.40000","3.20352","3281.7"
"38.50000","3.21179","3288.56"
"38.60000","3.21975","3295.21"
"38.70000","3.22782","3301.83"
"38.80000","3.23638","3309.28"
"38.90000","3.24505","3316.86"
"39.00000","3.25352","3323.65"
"39.10000","3.26148","3330.84"
"39.20000","3.26975","3338.64"
"39.30000","3.27811","3344.66"
"39.40000","3.28628","3352.13"
"39.50000","3.29474","3358.12"
"39.60000","3.30311","3366.22"
"39.70000","3.31157","3373.09"
"39.80000","3.32014","3380.28"
"39.90000","3.32831","3387.18"
"40.00000","3.33637","3394.49"
"40.10000","3.34464","3401.3"
"40.20000","3.35320","3408.32"
"40.30000","3.36177","3416.02"
"40.40000","3.37024","3422.44"
"40.50000","3.37850","3429.8"
"40.60000","3.38657","3435.96"
"40.70000","3.39453","3442.71"
"40.80000","3.40310","3449.88"
"40.90000","3.41176","3457.41"
"41.00000","3.42043","3463.74"
"41.10000","3.42860","3470.97"
"41.20000","3.43656","3477.58"
"41.30000","3.44452","3483.13"
"41.40000","3.45289","3490.62"
"41.50000","3.46135","3497.35"
"41.60000","3.47002","3505.1"
"41.70000","3.47839","3510.96"
"41.80000","3.48675","3518.53"
"41.90000","3.49522","3524.9"
"42.00000","3.50308","3532.07"
"42.10000","3.51125","3537.97"
"42.20000","3.51992","3544.97"
"42.30000","3.52808","3551.94"
"42.40000","3.53655","3557.57"
"42.50000","3.54521","3564.92"
"42.60000","3.55348","3570.15"
"42.70000","3.56124","3575.74"
"42.80000","3.56951","3582.6"
"42.90000","3.57827","3588.9"
"43.00000","3.58694","3595.89"
"43.10000","3.59511","3601.12"
"43.20000","3.60337","3608.25"
"43.30000","3.61184","3614.53"
"43.40000","3.61990","3620.78"
"43.50000","3.62807","3626.89"
"43.60000","3.63694","3633.61"
"43.70000","3.64540","3640.64"
"43.80000","3.65347","3645.99"
"43.90000","3.66153","3652.15"
"44.00000","3.66990","3657.97"
"44.10000","3.67826","3664.02"
"44.20000","3.68653","3670.28"
"44.30000","3.69499","3676.75"
"44.40000","3.70346","3682.29"
"44.50000","3.71173","3688.52"
"44.60000","3.71989","3694.63"
"44.70000","3.72805","3699.87"
"44.80000","3.73652","3705.57"
"44.90000","3.74469","3711.33"
"45.00000","3.75325","3717.37"
"45.10000","3.76182","3722.24"
"45.20000","3.77009","3727.42"
"45.30000","3.77835","3732.7"
"45.40000","3.78641","3737.47"
"45.50000","3.79458","3742.52"
"45.60000","3.80335","3748.26"
"45.70000","3.81202","3753.42"
"45.80000","3.82038","3758.18"
"45.90000","3.82844","3762.87"
"46.00000","3.83641","3767.48"
"46.10000","3.84457","3771.63"
"46.20000","3.85324","3775.53"
"46.30000","3.86181","3779.94"
"46.40000","3.87027","3782.92"
"46.50000","3.87854","3785.86"
"46.60000","3.88680","3788.61"
"46.70000","3.89497","3792.22"
"46.80000","3.90323","3794.04"
"46.90000","3.91160","3795.89"
"47.00000","3.91976","3797.31"
"47.10000","3.92793","3797.76"
"47.20000","3.93650","3798.52"
"47.30000","3.94496","3796.92"
"47.40000","3.95323","3794.28"
"47.50000","3.96129","3788.88"
"47.60000","3.96966","3780"
"47.70000","3.97832","3764.9"
"47.80000","3.98679","3719.16"
"47.84600","3.99072","3422.3"
"47.85000","3.99102","3093.19"
"47.85400","3.99143","2706.88"
"47.85800","3.99193","2284.1"
"47.86000","3.99213","2074.96"