File: Data_Processing/Tensile-Data/Sequence_36.csv
General : Start date,"10/29/2024 10:35 AM"
General : End date,"10/29/2024 10:36 AM"
Specimen notes : Specimen note 1,"Day 2, red, 215, batch 9, seq 36"
Test : Rate 1,"5.00000",mm/min

Time,Extension,Load
(s),(mm),(N)
"0.00000","0.00000","-0.42309"
"0.10000","0.00131","0.02430"
"0.20000","0.01018","10.32922"
"0.30000","0.02359","37.23154"
"0.40000","0.03276","55.89745"
"0.50000","0.04082","70.50705"
"0.60000","0.04929","86.95480"
"0.70000","0.05796","102.013"
"0.80000","0.06652","117.09"
"0.90000","0.07519","132.043"
"1.00000","0.08366","147.782"
"1.10000","0.09223","163.323"
"1.20000","0.10039","176.979"
"1.30000","0.10825","191.234"
"1.40000","0.11652","205.143"
"1.50000","0.12508","220.596"
"1.60000","0.13365","235.313"
"1.70000","0.14192","249.893"
"1.80000","0.15028","263.228"
"1.90000","0.15855","277.372"
"2.00000","0.16651","290.664"
"2.10000","0.17488","304.591"
"2.20000","0.18334","318.821"
"2.30000","0.19191","333.603"
"2.40000","0.20038","347.271"
"2.50000","0.20844","360.667"
"2.60000","0.21711","375.63"
"2.70000","0.22507","389.257"
"2.80000","0.23334","403.729"
"2.90000","0.24190","417.608"
"3.00000","0.25057","431.724"
"3.10000","0.25884","445.174"
"3.20000","0.26720","458.449"
"3.30000","0.27527","471.703"
"3.40000","0.28323","483.526"
"3.50000","0.29170","497.31"
"3.60000","0.30016","510.784"
"3.70000","0.30873","524.835"
"3.80000","0.31700","538.491"
"3.90000","0.32506","552.184"
"4.00000","0.33332","564.794"
"4.10000","0.34139","577.175"
"4.20000","0.34975","591.494"
"4.30000","0.35842","605.021"
"4.40000","0.36699","618.326"
"4.50000","0.37536","632.21"
"4.60000","0.38342","644.542"
"4.70000","0.39158","657.134"
"4.80000","0.39985","670.151"
"4.90000","0.40832","682.83"
"5.00000","0.41688","695.615"
"5.10000","0.42545","708.874"
"5.20000","0.43361","721.295"
"5.30000","0.44178","733.73"
"5.40000","0.45004","747.418"
"5.50000","0.45831","758.923"
"5.60000","0.46678","771.589"
"5.70000","0.47524","784.708"
"5.80000","0.48381","798.709"
"5.90000","0.49218","810.657"
"6.00000","0.50034","821.634"
"6.10000","0.50840","834.518"
"6.20000","0.51667","846.274"
"6.30000","0.52513","858.347"
"6.40000","0.53340","870.732"
"6.50000","0.54177","883.148"
"6.60000","0.55023","894.668"
"6.70000","0.55840","906.361"
"6.80000","0.56646","917.087"
"6.90000","0.57493","929.133"
"7.00000","0.58349","940.697"
"7.10000","0.59176","951.715"
"7.20000","0.60002","963.278"
"7.30000","0.60839","974.957"
"7.40000","0.61655","986.602"
"7.50000","0.62452","998.249"
"7.60000","0.63308","1009.52"
"7.70000","0.64195","1022.97"
"7.80000","0.65032","1033.89"
"7.90000","0.65818","1044.42"
"8.00000","0.66655","1055.82"
"8.10000","0.67522","1068.08"
"8.20000","0.68348","1079.51"
"8.30000","0.69185","1088.94"
"8.40000","0.70042","1100.6"
"8.50000","0.70878","1111.54"
"8.60000","0.71705","1122.57"
"8.70000","0.72521","1133.8"
"8.80000","0.73327","1142.97"
"8.90000","0.74154","1153.64"
"9.00000","0.75021","1165.6"
"9.10000","0.75867","1176.56"
"9.20000","0.76714","1187.21"
"9.30000","0.77541","1198.13"
"9.40000","0.78357","1208.55"
"9.50000","0.79173","1218.57"
"9.60000","0.79970","1229.02"
"9.70000","0.80826","1238.74"
"9.80000","0.81693","1250.06"
"9.90000","0.82540","1259.92"
"10.00000","0.83366","1269.42"
"10.10000","0.84163","1279.97"
"10.20000","0.84979","1288.8"
"10.30000","0.85816","1298.45"
"10.40000","0.86672","1308.54"
"10.50000","0.87529","1317.89"
"10.60000","0.88356","1328.7"
"10.70000","0.89182","1338.05"
"10.80000","0.90009","1346.72"
"10.90000","0.90815","1355.83"
"11.00000","0.91662","1365.25"
"11.10000","0.92488","1375.01"
"11.20000","0.93345","1385.34"
"11.30000","0.94212","1394.51"
"11.40000","0.95058","1403.73"
"11.50000","0.95855","1412.99"
"11.60000","0.96651","1423.11"
"11.70000","0.97488","1432.39"
"11.80000","0.98375","1442.58"
"11.90000","0.99201","1451.62"
"12.00000","1.00028","1460.66"
"12.10000","1.00864","1470.2"
"12.20000","1.01671","1479.94"
"12.30000","1.02477","1487.93"
"12.40000","1.03344","1498.21"
"12.50000","1.04200","1508.09"
"12.60000","1.05037","1516.9"
"12.70000","1.05843","1526.51"
"12.80000","1.06660","1536.17"
"12.90000","1.07476","1544.56"
"13.00000","1.08293","1554.65"
"13.10000","1.09160","1564.35"
"13.20000","1.10016","1574.4"
"13.30000","1.10843","1585.32"
"13.40000","1.11669","1593.43"
"13.50000","1.12496","1603.1"
"13.60000","1.13322","1612.86"
"13.70000","1.14149","1621.4"
"13.80000","1.15006","1631.69"
"13.90000","1.15872","1641.45"
"14.00000","1.16729","1651.04"
"14.10000","1.17556","1658.96"
"14.20000","1.18352","1667.46"
"14.30000","1.19148","1674.21"
"14.40000","1.19975","1684.56"
"14.50000","1.20841","1693.1"
"14.60000","1.21728","1702.75"
"14.70000","1.22545","1711.47"
"14.80000","1.23351","1720"
"14.90000","1.24158","1728.63"
"15.00000","1.24984","1736.75"
"15.10000","1.25831","1745.2"
"15.20000","1.26688","1754.91"
"15.30000","1.27544","1762.88"
"15.40000","1.28381","1772.66"
"15.50000","1.29197","1781.44"
"15.60000","1.29983","1789"
"15.70000","1.30820","1798.08"
"15.80000","1.31677","1806.79"
"15.90000","1.32493","1816.71"
"16.00000","1.33330","1824.4"
"16.10000","1.34207","1833.57"
"16.20000","1.35043","1842.42"
"16.30000","1.35819","1849.73"
"16.40000","1.36636","1859.76"
"16.50000","1.37503","1868.7"
"16.60000","1.38370","1877.55"
"16.70000","1.39206","1886.31"
"16.80000","1.40033","1894.78"
"16.90000","1.40849","1902.35"
"17.00000","1.41655","1911.86"
"17.10000","1.42482","1919.28"
"17.20000","1.43349","1928.07"
"17.30000","1.44216","1937.15"
"17.40000","1.45032","1945.18"
"17.50000","1.45838","1953.16"
"17.60000","1.46685","1961.59"
"17.70000","1.47501","1970.18"
"17.80000","1.48338","1977.96"
"17.90000","1.49185","1984.59"
"18.00000","1.50031","1994.41"
"18.10000","1.50858","2002.05"
"18.20000","1.51674","2011.07"
"18.30000","1.52491","2018.37"
"18.40000","1.53317","2027.72"
"18.50000","1.54164","2035.83"
"18.60000","1.55021","2044.91"
"18.70000","1.55877","2053.23"
"18.80000","1.56724","2061.12"
"18.90000","1.57530","2068.67"
"19.00000","1.58327","2077.04"
"19.10000","1.59143","2084.06"
"19.20000","1.60010","2092.84"
"19.30000","1.60867","2101.39"
"19.40000","1.61713","2108.93"
"19.50000","1.62540","2118.08"
"19.60000","1.63346","2124.7"
"19.70000","1.64163","2133.03"
"19.80000","1.64989","2141.77"
"19.90000","1.65836","2149.18"
"20.00000","1.66693","2158.36"
"20.10000","1.67539","2167.01"
"20.20000","1.68366","2175.67"
"20.30000","1.69182","2183.18"
"20.40000","1.70009","2192.22"
"20.50000","1.70825","2200.31"
"20.60000","1.71662","2208.82"
"20.70000","1.72508","2217.41"
"20.80000","1.73365","2226.01"
"20.90000","1.74202","2233.96"
"21.00000","1.75018","2242.34"
"21.10000","1.75814","2250.18"
"21.20000","1.76651","2258.84"
"21.30000","1.77528","2266.49"
"21.40000","1.78364","2275.25"
"21.50000","1.79181","2283.03"
"21.60000","1.80028","2291.25"
"21.70000","1.80834","2299.45"
"21.80000","1.81650","2305.79"
"21.90000","1.82497","2315.03"
"22.00000","1.83374","2323.64"
"22.10000","1.84200","2331.83"
"22.20000","1.85017","2339.91"
"22.30000","1.85853","2348.99"
"22.40000","1.86690","2356.33"
"22.50000","1.87516","2364.1"
"22.60000","1.88353","2372.61"
"22.70000","1.89210","2381.56"
"22.80000","1.90036","2389.64"
"22.90000","1.90863","2398.69"
"23.00000","1.91679","2405.81"
"23.10000","1.92496","2413.27"
"23.20000","1.93302","2420.86"
"23.30000","1.94149","2430.59"
"23.40000","1.95005","2438.55"
"23.50000","1.95862","2447.6"
"23.60000","1.96699","2455.7"
"23.70000","1.97515","2463.48"
"23.80000","1.98311","2471.53"
"23.90000","1.99138","2479.69"
"24.00000","2.00005","2489.68"
"24.10000","2.00841","2497.29"
"24.20000","2.01698","2505.62"
"24.30000","2.02525","2513.16"
"24.40000","2.03341","2521.02"
"24.50000","2.04157","2528.93"
"24.60000","2.04994","2537.17"
"24.70000","2.05851","2545.14"
"24.80000","2.06697","2554.29"
"24.90000","2.07534","2561"
"25.00000","2.08391","2570.02"
"25.10000","2.09187","2578.67"
"25.20000","2.09993","2585.07"
"25.30000","2.10840","2593.85"
"25.40000","2.11687","2602.67"
"25.50000","2.12513","2610.67"
"25.60000","2.13360","2618.17"
"25.70000","2.14227","2627.5"
"25.80000","2.15013","2635.53"
"25.90000","2.15799","2642.65"
"26.00000","2.16656","2650.6"
"26.10000","2.17523","2659.71"
"26.20000","2.18349","2668.07"
"26.30000","2.19196","2676.2"
"26.40000","2.20022","2684.41"
"26.50000","2.20809","2691.79"
"26.60000","2.21625","2699.64"
"26.70000","2.22492","2708.64"
"26.80000","2.23369","2717.26"
"26.90000","2.24205","2725.27"
"27.00000","2.25012","2733.65"
"27.10000","2.25848","2741.47"
"27.20000","2.26675","2748.67"
"27.30000","2.27501","2755.87"
"27.40000","2.28348","2765.1"
"27.50000","2.29205","2772.71"
"27.60000","2.30021","2780.74"
"27.70000","2.30858","2789.45"
"27.80000","2.31674","2797.35"
"27.90000","2.32501","2804.36"
"28.00000","2.33327","2812.69"
"28.10000","2.34184","2821.42"
"28.20000","2.35041","2830.42"
"28.30000","2.35887","2838.33"
"28.40000","2.36704","2845.7"
"28.50000","2.37500","2853.43"
"28.60000","2.38306","2861.41"
"28.70000","2.39153","2869.5"
"28.80000","2.40020","2877.83"
"28.90000","2.40867","2885.8"
"29.00000","2.41703","2893.44"
"29.10000","2.42499","2900.59"
"29.20000","2.43316","2908.74"
"29.30000","2.44152","2916.53"
"29.40000","2.44999","2924.35"
"29.50000","2.45856","2933.19"
"29.60000","2.46692","2940.54"
"29.70000","2.47519","2949.24"
"29.80000","2.48356","2957.1"
"29.90000","2.49172","2965.18"
"30.00000","2.49998","2972.84"
"30.10000","2.50845","2980.38"
"30.20000","2.51682","2989.93"
"30.30000","2.52538","2997.07"
"30.40000","2.53395","3005.23"
"30.50000","2.54212","3013.64"
"30.60000","2.54998","3020.41"
"30.70000","2.55824","3028.21"
"30.80000","2.56691","3036.42"
"30.90000","2.57548","3045.28"
"31.00000","2.58364","3052.97"
"31.10000","2.59171","3060.54"
"31.20000","2.60007","3068.95"
"31.30000","2.60844","3077.61"
"31.40000","2.61670","3084.65"
"31.50000","2.62547","3092.85"
"31.60000","2.63374","3101.32"
"31.70000","2.64180","3108.42"
"31.80000","2.64986","3115.78"
"31.90000","2.65833","3124.39"
"32.00000","2.66660","3131.49"
"32.10000","2.67486","3139.58"
"32.20000","2.68353","3147.72"
"32.30000","2.69179","3156.35"
"32.40000","2.70016","3163.96"
"32.50000","2.70843","3171.75"
"32.60000","2.71649","3178.64"
"32.70000","2.72496","3186.61"
"32.80000","2.73322","3195.02"
"32.90000","2.74179","3203.35"
"33.00000","2.75046","3211.87"
"33.10000","2.75872","3218.97"
"33.20000","2.76689","3226.64"
"33.30000","2.77485","3234.24"
"33.40000","2.78311","3241.5"
"33.50000","2.79178","3249.88"
"33.60000","2.80045","3258.67"
"33.70000","2.80882","3266.88"
"33.80000","2.81698","3275.05"
"33.90000","2.82504","3282.19"
"34.00000","2.83341","3289.67"
"34.10000","2.84168","3297.31"
"34.20000","2.85014","3305.92"
"34.30000","2.85851","3313.34"
"34.40000","2.86687","3321.11"
"34.50000","2.87534","3329.53"
"34.60000","2.88350","3337.63"
"34.70000","2.89147","3344.45"
"34.80000","2.89983","3352.49"
"34.90000","2.90830","3360.55"
"35.00000","2.91646","3367.96"
"35.10000","2.92493","3375.85"
"35.20000","2.93350","3384.79"
"35.30000","2.94176","3391.18"
"35.40000","2.94973","3398.74"
"35.50000","2.95819","3407.06"
"35.60000","2.96706","3414.84"
"35.70000","2.97543","3422.22"
"35.80000","2.98359","3429.67"
"35.90000","2.99206","3437.66"
"36.00000","3.00002","3444.75"
"36.10000","3.00809","3451.87"
"36.20000","3.01665","3459.79"
"36.30000","3.02542","3469.13"
"36.40000","3.03379","3476.68"
"36.50000","3.04185","3484.91"
"36.60000","3.05012","3492.28"
"36.70000","3.05848","3499.94"
"36.80000","3.06675","3507.73"
"36.90000","3.07521","3516.02"
"37.00000","3.08368","3523.54"
"37.10000","3.09195","3531.92"
"37.20000","3.10021","3538.66"
"37.30000","3.10838","3546.71"
"37.40000","3.11674","3553.07"
"37.50000","3.12490","3561.03"
"37.60000","3.13327","3568.79"
"37.70000","3.14184","3576.71"
"37.80000","3.15041","3584.95"
"37.90000","3.15877","3591.71"
"38.00000","3.16684","3599.34"
"38.10000","3.17480","3605.02"
"38.20000","3.18316","3613.4"
"38.30000","3.19183","3622.55"
"38.40000","3.20040","3630"
"38.50000","3.20866","3636.37"
"38.60000","3.21683","3643.7"
"38.70000","3.22489","3651.19"
"38.80000","3.23326","3658.02"
"38.90000","3.24162","3665.96"
"39.00000","3.25029","3673.58"
"39.10000","3.25866","3681.22"
"39.20000","3.26702","3688.65"
"39.30000","3.27529","3694.96"
"39.40000","3.28335","3702.68"
"39.50000","3.29152","3709.41"
"39.60000","3.29998","3717.64"
"39.70000","3.30825","3724.76"
"39.80000","3.31692","3731.99"
"39.90000","3.32548","3739.96"
"40.00000","3.33375","3747.17"
"40.10000","3.34161","3753.74"
"40.20000","3.34967","3760.96"
"40.30000","3.35834","3768.13"
"40.40000","3.36691","3775.66"
"40.50000","3.37528","3782.21"
"40.60000","3.38364","3789.39"
"40.70000","3.39181","3796.86"
"40.80000","3.39987","3803.52"
"40.90000","3.40824","3810.68"
"41.00000","3.41701","3818.62"
"41.10000","3.42567","3826.09"
"41.20000","3.43374","3832.32"
"41.30000","3.44180","3840.15"
"41.40000","3.45017","3846.73"
"41.50000","3.45843","3854.11"
"41.60000","3.46670","3860.94"
"41.70000","3.47526","3867.89"
"41.80000","3.48373","3875.12"
"41.90000","3.49200","3882.9"
"42.00000","3.50026","3888.97"
"42.10000","3.50812","3895.68"
"42.20000","3.51639","3902.24"
"42.30000","3.52485","3909.12"
"42.40000","3.53362","3916.67"
"42.50000","3.54219","3923.09"
"42.60000","3.55046","3930.73"
"42.70000","3.55852","3936.1"
"42.80000","3.56658","3943.12"
"42.90000","3.57475","3951.04"
"43.00000","3.58331","3957.52"
"43.10000","3.59198","3964.11"
"43.20000","3.60055","3972.03"
"43.30000","3.60871","3977.57"
"43.40000","3.61668","3983.8"
"43.50000","3.62494","3990.69"
"43.60000","3.63341","3996.76"
"43.70000","3.64177","4003.55"
"43.80000","3.65024","4010.22"
"43.90000","3.65851","4016.82"
"44.00000","3.66707","4023.52"
"44.10000","3.67534","4030.43"
"44.20000","3.68330","4035.56"
"44.30000","3.69157","4042.33"
"44.40000","3.70003","4048.94"
"44.50000","3.70840","4055.48"
"44.60000","3.71687","4062.14"
"44.70000","3.72543","4068.93"
"44.80000","3.73360","4075.54"
"44.90000","3.74156","4080.3"
"45.00000","3.74993","4086.43"
"45.10000","3.75849","4092.83"
"45.20000","3.76696","4099.49"
"45.30000","3.77512","4106"
"45.40000","3.78329","4111.25"
"45.50000","3.79166","4117.85"
"45.60000","3.79972","4123.68"
"45.70000","3.80819","4129.34"
"45.80000","3.81695","4136.2"
"45.90000","3.82542","4142.61"
"46.00000","3.83348","4147.8"
"46.10000","3.84155","4152.84"
"46.20000","3.85001","4159.32"
"46.30000","3.85828","4165.58"
"46.40000","3.86665","4170.87"
"46.50000","3.87531","4177.01"
"46.60000","3.88378","4183.54"
"46.70000","3.89194","4189"
"46.80000","3.90021","4193.41"
"46.90000","3.90837","4199.37"
"47.00000","3.91684","4204.32"
"47.10000","3.92500","4209.63"
"47.20000","3.93357","4216.24"
"47.30000","3.94204","4220.65"
"47.40000","3.95051","4226.81"
"47.50000","3.95867","4231.42"
"47.60000","3.96663","4236.51"
"47.70000","3.97490","4241.58"
"47.80000","3.98326","4246.09"
"47.90000","3.99213","4252.63"
"48.00000","4.00060","4257.46"
"48.10000","4.00856","4261.76"
"48.20000","4.01663","4266.72"
"48.30000","4.02489","4271.55"
"48.40000","4.03316","4275.94"
"48.50000","4.04182","4281.45"
"48.60000","4.05029","4286.29"
"48.70000","4.05856","4291.4"
"48.80000","4.06692","4295.56"
"48.90000","4.07509","4299.61"
"49.00000","4.08315","4303.5"
"49.10000","4.09162","4307.84"
"49.20000","4.09998","4312.19"
"49.30000","4.10845","4317.18"
"49.40000","4.11712","4321"
"49.50000","4.12548","4325.52"
"49.60000","4.13345","4328.93"
"49.70000","4.14151","4331.82"
"49.80000","4.14988","4335.04"
"49.90000","4.15864","4339.35"
"50.00000","4.16701","4343.3"
"50.10000","4.17538","4345.34"
"50.20000","4.18364","4348.77"
"50.30000","4.19170","4350.51"
"50.40000","4.19987","4352.84"
"50.50000","4.20834","4354.82"
"50.60000","4.21700","4358.15"
"50.70000","4.22527","4359.98"
"50.80000","4.23323","4360.68"
"50.90000","4.24160","4362.22"
"51.00000","4.24996","4363.32"
"51.10000","4.25823","4364.66"
"51.20000","4.26680","4364.8"
"51.30000","4.27516","4365.56"
"51.40000","4.28363","4365.42"
"51.50000","4.29199","4365.32"
"51.60000","4.30006","4363.26"
"51.70000","4.30812","4362.1"
"51.80000","4.31639","4360.12"
"51.90000","4.32495","4358.78"
"52.00000","4.33372","4356.29"
"52.10000","4.34229","4353"
"52.20000","4.35056","4349.33"
"52.30000","4.35852","4343.94"
"52.40000","4.36638","4338.95"
"52.50000","4.37495","4333.04"
"52.60000","4.38362","4325.97"
"52.70000","4.39218","4319.38"
"52.80000","4.40055","4310.7"
"52.90000","4.40861","4300.05"
"53.00000","4.41657","4288.75"
"53.10000","4.42504","4276.02"
"53.20000","4.43331","4260.79"
"53.30000","4.44177","4244.7"
"53.40000","4.45024","4226.06"
"53.50000","4.45891","4202.79"
"53.60000","4.46707","4171.93"
"53.70000","4.47494","4123.4"
"53.75200","4.47927","3863.7"
"53.75600","4.47967","3508.18"
"53.76000","4.48008","3085.33"
"53.76400","4.48048","2618.85"
"53.76600","4.48068","2383.83"