File: Data_Processing/Tensile-Data/Sequence_2.csv
General : Start date,"10/22/2024 9:09 AM"
General : End date,"10/22/2024 9:10 AM"
Specimen notes : Specimen note 1,"black, 200, batch 2, seq 2"
Test : Rate 1,"5.00000",mm/min

Time,Extension,Load
(s),(mm),(N)
"0.00000","0.00000","0.64735"
"0.10000","0.00141","0.83305"
"0.20000","0.01129","13.82545"
"0.30000","0.02469","39.95052"
"0.40000","0.03286","57.51871"
"0.50000","0.04082","70.26273"
"0.60000","0.04989","86.94006"
"0.70000","0.05836","100.816"
"0.80000","0.06673","115.194"
"0.90000","0.07529","127.056"
"1.00000","0.08386","142.649"
"1.10000","0.09223","157.102"
"1.20000","0.10029","169.797"
"1.30000","0.10845","184.083"
"1.40000","0.11682","196.749"
"1.50000","0.12519","211.158"
"1.60000","0.13375","225.532"
"1.70000","0.14232","240.051"
"1.80000","0.15069","254.843"
"1.90000","0.15865","268.849"
"2.00000","0.16681","281.477"
"2.10000","0.17508","294.068"
"2.20000","0.18344","309.452"
"2.30000","0.19211","323.045"
"2.40000","0.20038","337.112"
"2.50000","0.20824","350.324"
"2.60000","0.21640","364.038"
"2.70000","0.22477","378.073"
"2.80000","0.23354","392.357"
"2.90000","0.24221","407.167"
"3.00000","0.25057","420.39"
"3.10000","0.25854","432.711"
"3.20000","0.26690","446.537"
"3.30000","0.27527","460.605"
"3.40000","0.28363","474.925"
"3.50000","0.29210","488.438"
"3.60000","0.30037","501.841"
"3.70000","0.30883","515.827"
"3.80000","0.31720","529.117"
"3.90000","0.32546","542.362"
"4.00000","0.33332","555.436"
"4.10000","0.34169","568.917"
"4.20000","0.35026","582.768"
"4.30000","0.35883","596.212"
"4.40000","0.36709","609.936"
"4.50000","0.37546","623.629"
"4.60000","0.38362","636.293"
"4.70000","0.39168","649.189"
"4.80000","0.40005","662.885"
"4.90000","0.40862","676.271"
"5.00000","0.41729","690.3"
"5.10000","0.42545","702.791"
"5.20000","0.43361","716.139"
"5.30000","0.44188","728.916"
"5.40000","0.44994","741.745"
"5.50000","0.45841","754.872"
"5.60000","0.46698","768.332"
"5.70000","0.47544","780.181"
"5.80000","0.48341","793.976"
"5.90000","0.49157","806.543"
"6.00000","0.50004","818.553"
"6.10000","0.50840","831.132"
"6.20000","0.51657","844.394"
"6.30000","0.52503","856.711"
"6.40000","0.53380","870.729"
"6.50000","0.54217","884.096"
"6.60000","0.55023","895.872"
"6.70000","0.55830","907.753"
"6.80000","0.56666","920.819"
"6.90000","0.57503","933.113"
"7.00000","0.58360","945.801"
"7.10000","0.59206","958.021"
"7.20000","0.60053","969.888"
"7.30000","0.60859","981.673"
"7.40000","0.61655","992.937"
"7.50000","0.62502","1005.35"
"7.60000","0.63349","1018.07"
"7.70000","0.64206","1030.45"
"7.80000","0.65042","1042.12"
"7.90000","0.65879","1054.54"
"8.00000","0.66695","1065.86"
"8.10000","0.67491","1077.03"
"8.20000","0.68328","1089.04"
"8.30000","0.69195","1101.46"
"8.40000","0.70001","1112.54"
"8.50000","0.70838","1124.57"
"8.60000","0.71705","1136.57"
"8.70000","0.72541","1147.43"
"8.80000","0.73327","1158.39"
"8.90000","0.74154","1169.94"
"9.00000","0.75021","1182.05"
"9.10000","0.75857","1193.44"
"9.20000","0.76704","1206.01"
"9.30000","0.77541","1216.79"
"9.40000","0.78347","1227.78"
"9.50000","0.79143","1238.32"
"9.60000","0.79970","1250.36"
"9.70000","0.80857","1262.02"
"9.80000","0.81713","1273.86"
"9.90000","0.82550","1284.38"
"10.00000","0.83366","1293.73"
"10.10000","0.84183","1305.64"
"10.20000","0.84999","1316.3"
"10.30000","0.85826","1326.12"
"10.40000","0.86693","1337.96"
"10.50000","0.87549","1349.17"
"10.60000","0.88366","1359.88"
"10.70000","0.89192","1370.84"
"10.80000","0.90009","1380.9"
"10.90000","0.90835","1390.65"
"11.00000","0.91662","1401.74"
"11.10000","0.92508","1413.27"
"11.20000","0.93365","1423.88"
"11.30000","0.94192","1434.17"
"11.40000","0.95028","1444.34"
"11.50000","0.95835","1453.84"
"11.60000","0.96661","1465.28"
"11.70000","0.97528","1476.48"
"11.80000","0.98375","1486.88"
"11.90000","0.99211","1497.63"
"12.00000","1.00028","1507.97"
"12.10000","1.00834","1517.32"
"12.20000","1.01650","1527.78"
"12.30000","1.02497","1538.23"
"12.40000","1.03354","1547.86"
"12.50000","1.04200","1558.85"
"12.60000","1.05037","1569.57"
"12.70000","1.05864","1579.47"
"12.80000","1.06670","1589.2"
"12.90000","1.07496","1599.24"
"13.00000","1.08343","1609.72"
"13.10000","1.09180","1619.73"
"13.20000","1.10006","1629.75"
"13.30000","1.10873","1640.58"
"13.40000","1.11710","1650.42"
"13.50000","1.12506","1659.92"
"13.60000","1.13322","1670.29"
"13.70000","1.14179","1680.8"
"13.80000","1.15046","1691.62"
"13.90000","1.15862","1701.68"
"14.00000","1.16699","1710.9"
"14.10000","1.17546","1720.77"
"14.20000","1.18352","1730.73"
"14.30000","1.19148","1740.52"
"14.40000","1.20015","1749.63"
"14.50000","1.20882","1760.71"
"14.60000","1.21708","1770.64"
"14.70000","1.22525","1779.2"
"14.80000","1.23361","1789.79"
"14.90000","1.24188","1798.41"
"15.00000","1.25004","1807.77"
"15.10000","1.25851","1817"
"15.20000","1.26708","1827.08"
"15.30000","1.27524","1835.7"
"15.40000","1.28361","1845.84"
"15.50000","1.29157","1853.95"
"15.60000","1.29983","1862.82"
"15.70000","1.30820","1871.75"
"15.80000","1.31677","1881.41"
"15.90000","1.32544","1890.97"
"16.00000","1.33370","1900.25"
"16.10000","1.34197","1908.19"
"16.20000","1.35003","1916.9"
"16.30000","1.35819","1925.26"
"16.40000","1.36656","1933.08"
"16.50000","1.37533","1942.93"
"16.60000","1.38380","1950.66"
"16.70000","1.39206","1960.24"
"16.80000","1.40012","1968.76"
"16.90000","1.40829","1976.71"
"17.00000","1.41676","1985.01"
"17.10000","1.42512","1992.97"
"17.20000","1.43349","2002.5"
"17.30000","1.44205","2010.92"
"17.40000","1.45052","2021.05"
"17.50000","1.45879","2029.16"
"17.60000","1.46675","2037.24"
"17.70000","1.47511","2045.79"
"17.80000","1.48358","2055.6"
"17.90000","1.49185","2063.92"
"18.00000","1.50031","2073.49"
"18.10000","1.50878","2082.54"
"18.20000","1.51694","2090.84"
"18.30000","1.52501","2099.56"
"18.40000","1.53317","2107.58"
"18.50000","1.54184","2116.56"
"18.60000","1.55041","2127.1"
"18.70000","1.55847","2134.78"
"18.80000","1.56674","2143.73"
"18.90000","1.57520","2152.32"
"19.00000","1.58337","2161.55"
"19.10000","1.59153","2169.28"
"19.20000","1.60030","2179.37"
"19.30000","1.60887","2188.3"
"19.40000","1.61663","2196.18"
"19.50000","1.62499","2205.25"
"19.60000","1.63366","2214.88"
"19.70000","1.64193","2223.26"
"19.80000","1.65019","2231.8"
"19.90000","1.65866","2240.92"
"20.00000","1.66713","2250.54"
"20.10000","1.67549","2258.32"
"20.20000","1.68356","2267.24"
"20.30000","1.69172","2275.46"
"20.40000","1.69999","2284.2"
"20.50000","1.70825","2292.62"
"20.60000","1.71682","2302.34"
"20.70000","1.72539","2311.19"
"20.80000","1.73385","2320.78"
"20.90000","1.74212","2329.21"
"21.00000","1.75008","2337.6"
"21.10000","1.75814","2345.11"
"21.20000","1.76671","2353.61"
"21.30000","1.77528","2362.65"
"21.40000","1.78364","2371.07"
"21.50000","1.79191","2380.26"
"21.60000","1.79997","2387.92"
"21.70000","1.80814","2397.07"
"21.80000","1.81650","2405.38"
"21.90000","1.82517","2414.31"
"22.00000","1.83354","2423.21"
"22.10000","1.84210","2432.12"
"22.20000","1.85057","2441.04"
"22.30000","1.85853","2448.53"
"22.40000","1.86650","2456.33"
"22.50000","1.87496","2465.61"
"22.60000","1.88333","2475.4"
"22.70000","1.89180","2484.31"
"22.80000","1.90056","2493.53"
"22.90000","1.90893","2502.49"
"23.00000","1.91679","2510.33"
"23.10000","1.92465","2517.88"
"23.20000","1.93312","2525.9"
"23.30000","1.94189","2535.96"
"23.40000","1.95036","2544.77"
"23.50000","1.95872","2552.92"
"23.60000","1.96699","2561.73"
"23.70000","1.97495","2569.77"
"23.80000","1.98301","2577.45"
"23.90000","1.99168","2587.04"
"24.00000","2.00045","2595.18"
"24.10000","2.00872","2603.36"
"24.20000","2.01678","2611.71"
"24.30000","2.02494","2619.35"
"24.40000","2.03331","2628.17"
"24.50000","2.04147","2636.21"
"24.60000","2.04994","2645.09"
"24.70000","2.05861","2654.17"
"24.80000","2.06697","2662.27"
"24.90000","2.07544","2670.84"
"25.00000","2.08361","2680.36"
"25.10000","2.09187","2687.4"
"25.20000","2.10004","2695.53"
"25.30000","2.10860","2704.51"
"25.40000","2.11727","2714.32"
"25.50000","2.12564","2722.34"
"25.60000","2.13390","2730.06"
"25.70000","2.14186","2738.04"
"25.80000","2.14993","2746.13"
"25.90000","2.15819","2754.24"
"26.00000","2.16696","2762.45"
"26.10000","2.17563","2770.84"
"26.20000","2.18390","2780.02"
"26.30000","2.19186","2787.62"
"26.40000","2.19992","2794.57"
"26.50000","2.20829","2803.31"
"26.60000","2.21675","2812.4"
"26.70000","2.22532","2820.87"
"26.80000","2.23369","2829.45"
"26.90000","2.24215","2837.42"
"27.00000","2.25022","2846.41"
"27.10000","2.25828","2852.97"
"27.20000","2.26655","2861.41"
"27.30000","2.27501","2869.06"
"27.40000","2.28338","2878"
"27.50000","2.29174","2885.94"
"27.60000","2.30041","2894.34"
"27.70000","2.30858","2902.26"
"27.80000","2.31654","2910.18"
"27.90000","2.32470","2917.86"
"28.00000","2.33337","2926.55"
"28.10000","2.34204","2935.54"
"28.20000","2.35021","2943.56"
"28.30000","2.35847","2951.2"
"28.40000","2.36684","2960.05"
"28.50000","2.37500","2967.93"
"28.60000","2.38327","2975.79"
"28.70000","2.39203","2984.52"
"28.80000","2.40080","2992.3"
"28.90000","2.40887","2999.08"
"29.00000","2.41683","3006.95"
"29.10000","2.42530","3015.05"
"29.20000","2.43366","3023.53"
"29.30000","2.44183","3030.93"
"29.40000","2.45019","3039.08"
"29.50000","2.45866","3047.08"
"29.60000","2.46703","3055.42"
"29.70000","2.47519","3062.58"
"29.80000","2.48325","3070.08"
"29.90000","2.49152","3077.67"
"30.00000","2.49978","3085.99"
"30.10000","2.50845","3094.4"
"30.20000","2.51712","3103.22"
"30.30000","2.52549","3111.45"
"30.40000","2.53375","3119.82"
"30.50000","2.54181","3127.19"
"30.60000","2.55008","3134.22"
"30.70000","2.55855","3142.75"
"30.80000","2.56711","3151.57"
"30.90000","2.57558","3159.85"
"31.00000","2.58374","3167.61"
"31.10000","2.59191","3174.92"
"31.20000","2.59987","3182.15"
"31.30000","2.60814","3188.84"
"31.40000","2.61670","3197.34"
"31.50000","2.62527","3205.24"
"31.60000","2.63364","3212.62"
"31.70000","2.64210","3221.66"
"31.80000","2.65037","3229.39"
"31.90000","2.65843","3236.26"
"32.00000","2.66670","3243.49"
"32.10000","2.67506","3251.16"
"32.20000","2.68333","3258.27"
"32.30000","2.69190","3266.5"
"32.40000","2.70056","3274.07"
"32.50000","2.70863","3282.05"
"32.60000","2.71659","3288.18"
"32.70000","2.72475","3295.41"
"32.80000","2.73352","3303.21"
"32.90000","2.74199","3301.39"
"33.00000","2.75036","3219.26"
"33.10000","2.75862","3230.15"
"33.20000","2.76689","3242.02"
"33.30000","2.77485","3250.62"
"33.40000","2.78321","3260.91"
"33.50000","2.79198","3270.18"
"33.60000","2.80055","3279.42"
"33.70000","2.80872","3289.55"
"33.80000","2.81688","3298.16"
"33.90000","2.82525","3306.87"
"34.00000","2.83341","3316.06"
"34.10000","2.84168","3324.2"
"34.20000","2.85024","3332.88"
"34.30000","2.85871","3341.68"
"34.40000","2.86697","3349.68"
"34.50000","2.87514","3357.45"
"34.60000","2.88330","3364.59"
"34.70000","2.89147","3372.86"
"34.80000","2.89963","3381.66"
"34.90000","2.90850","3391.05"
"35.00000","2.91717","3399.14"
"35.10000","2.92554","3407.42"
"35.20000","2.93350","3415.39"
"35.30000","2.94146","3422.84"
"35.40000","2.94973","3431.16"
"35.50000","2.95849","3440.22"
"35.60000","2.96696","3448.46"
"35.70000","2.97543","3451.28"
"35.80000","2.98379","3458.3"
"35.90000","2.99176","3465.93"
"36.00000","3.00002","3473.05"
"36.10000","3.00839","3481.36"
"36.20000","3.01685","3489.45"
"36.30000","3.02532","3496.61"
"36.40000","3.03399","3504.78"
"36.50000","3.04225","3511.49"
"36.60000","3.05022","3518.22"
"36.70000","3.05828","3525.47"
"36.80000","3.06665","3532.55"
"36.90000","3.07511","3539.96"
"37.00000","3.08338","3547.16"
"37.10000","3.09205","3554.95"
"37.20000","3.10051","3562.09"
"37.30000","3.10838","3568.78"
"37.40000","3.11644","3574.86"
"37.50000","3.12490","3582.84"
"37.60000","3.13377","3591.14"
"37.70000","3.14214","3597.01"
"37.80000","3.15031","3603.68"
"37.90000","3.15857","3610.75"
"38.00000","3.16663","3616.83"
"38.10000","3.17470","3623.81"
"38.20000","3.18337","3631.09"
"38.30000","3.19224","3638.53"
"38.40000","3.20040","3644.35"
"38.50000","3.20856","3651.87"
"38.60000","3.21703","3658.18"
"38.70000","3.22519","3664.69"
"38.80000","3.23346","3671.04"
"38.90000","3.24183","3675.01"
"39.00000","3.25039","3680.15"
"39.10000","3.25886","3686.15"
"39.20000","3.26712","3693.33"
"39.30000","3.27519","3698.92"
"39.40000","3.28325","3705.48"
"39.50000","3.29162","3708.39"
"39.60000","3.30008","3714.09"
"39.70000","3.30875","3720.91"
"39.80000","3.31722","3727.06"
"39.90000","3.32548","3727.35"
"40.00000","3.33365","3731.7"
"40.10000","3.34171","3736.42"
"40.20000","3.35018","3742.02"
"40.30000","3.35854","3748.02"
"40.40000","3.36701","3753.85"
"40.50000","3.37538","3759.36"
"40.60000","3.38344","3765"
"40.70000","3.39161","3770.54"
"40.80000","3.39997","3775.3"
"40.90000","3.40844","3781.68"
"41.00000","3.41680","3787.32"
"41.10000","3.42527","3791.22"
"41.20000","3.43374","3797.1"
"41.30000","3.44200","3802.92"
"41.40000","3.44996","3808.26"
"41.50000","3.45843","3813.39"
"41.60000","3.46690","3819.13"
"41.70000","3.47526","3825.09"
"41.80000","3.48383","3829.31"
"41.90000","3.49230","3835.8"
"42.00000","3.50066","3840.43"
"42.10000","3.50832","3844.61"
"42.20000","3.51649","3849.76"
"42.30000","3.52516","3855.53"
"42.40000","3.53383","3861.07"
"42.50000","3.54209","3866.08"
"42.60000","3.55035","3871.11"
"42.70000","3.55852","3876.2"
"42.80000","3.56658","3879.54"
"42.90000","3.57485","3883.37"
"43.00000","3.58362","3888.41"
"43.10000","3.59218","3893.26"
"43.20000","3.60015","3897.41"
"43.30000","3.60831","3901.23"
"43.40000","3.61688","3905.67"
"43.50000","3.62504","3909.46"
"43.60000","3.63331","3912.88"
"43.70000","3.64167","3917.37"
"43.80000","3.65014","3921.74"
"43.90000","3.65851","3925.61"
"44.00000","3.66697","3929.5"
"44.10000","3.67514","3932.05"
"44.20000","3.68330","3935.38"
"44.30000","3.69167","3937.82"
"44.40000","3.70024","3941.17"
"44.50000","3.70890","3944.01"
"44.60000","3.71717","3946.09"
"44.70000","3.72533","3948.12"
"44.80000","3.73330","3948.86"
"44.90000","3.74166","3949.58"
"45.00000","3.75013","3952.18"
"45.10000","3.75880","3951.5"
"45.20000","3.76726","3950.97"
"45.30000","3.77543","3950.7"
"45.40000","3.78339","3947.3"
"45.50000","3.79155","3944.71"
"45.60000","3.80012","3940.38"
"45.70000","3.80849","3935.36"
"45.80000","3.81685","3926.8"
"45.90000","3.82522","3915.44"
"46.00000","3.83369","3898.15"
"46.10000","3.84185","3861.49"
"46.15800","3.84659","3609.99"
"46.16200","3.84689","3293.49"
"46.16600","3.84729","2900.83"
"46.17000","3.84780","2470.25"
"46.17200","3.84800","2253.35"