File: Data_Processing/Tensile-Data/Sequence_4.csv
General : Start date,"10/22/2024 9:16 AM"
General : End date,"10/22/2024 9:17 AM"
Specimen notes : Specimen note 1,"purple, 200, batch 4, seq 4"
Test : Rate 1,"5.00000",mm/min

Time,Extension,Load
(s),(mm),(N)
"0.00000","0.00000","0.72189"
"0.10000","0.00141","-0.29434"
"0.20000","0.01189","14.24866"
"0.30000","0.02429","39.06367"
"0.40000","0.03235","55.30144"
"0.50000","0.04072","69.15572"
"0.60000","0.04979","84.22055"
"0.70000","0.05856","100.102"
"0.80000","0.06703","115.348"
"0.90000","0.07509","128.375"
"1.00000","0.08356","139.713"
"1.10000","0.09182","151.129"
"1.20000","0.10009","164.977"
"1.30000","0.10855","179.496"
"1.40000","0.11722","193.727"
"1.50000","0.12569","209.503"
"1.60000","0.13395","223.28"
"1.70000","0.14202","237.807"
"1.80000","0.15018","251.653"
"1.90000","0.15865","266.165"
"2.00000","0.16691","279.682"
"2.10000","0.17548","294.735"
"2.20000","0.18405","309.737"
"2.30000","0.19231","323.996"
"2.40000","0.20028","337.62"
"2.50000","0.20834","351.851"
"2.60000","0.21671","366.252"
"2.70000","0.22517","380.607"
"2.80000","0.23374","394.737"
"2.90000","0.24201","408.799"
"3.00000","0.24997","422.948"
"3.10000","0.25803","436.523"
"3.20000","0.26660","450.821"
"3.30000","0.27537","465.281"
"3.40000","0.28383","478.932"
"3.50000","0.29230","493.762"
"3.60000","0.30026","507.151"
"3.70000","0.30873","521.365"
"3.80000","0.31690","536.472"
"3.90000","0.32526","549.668"
"4.00000","0.33373","562.143"
"4.10000","0.34209","576.551"
"4.20000","0.35056","590.473"
"4.30000","0.35893","604.794"
"4.40000","0.36699","617.577"
"4.50000","0.37495","631.201"
"4.60000","0.38332","645.429"
"4.70000","0.39199","659.7"
"4.80000","0.40055","672.701"
"4.90000","0.40882","686.694"
"5.00000","0.41729","700.524"
"5.10000","0.42545","713.841"
"5.20000","0.43331","726.676"
"5.30000","0.44158","739.107"
"5.40000","0.45035","753.883"
"5.50000","0.45891","768.172"
"5.60000","0.46708","781.226"
"5.70000","0.47524","794.189"
"5.80000","0.48351","808.423"
"5.90000","0.49167","821.091"
"6.00000","0.50004","833.763"
"6.10000","0.50871","847.044"
"6.20000","0.51717","861.262"
"6.30000","0.52503","874.02"
"6.40000","0.53340","887.165"
"6.50000","0.54187","900.523"
"6.60000","0.54993","912.724"
"6.70000","0.55820","925.902"
"6.80000","0.56676","939.382"
"6.90000","0.57553","953.826"
"7.00000","0.58380","965.904"
"7.10000","0.59196","979.32"
"7.20000","0.60002","991.148"
"7.30000","0.60839","1003.96"
"7.40000","0.61676","1017.64"
"7.50000","0.62532","1030.37"
"7.60000","0.63379","1043.08"
"7.70000","0.64216","1056.44"
"7.80000","0.65022","1068.1"
"7.90000","0.65818","1080.14"
"8.00000","0.66675","1092.61"
"8.10000","0.67522","1105.67"
"8.20000","0.68388","1118.02"
"8.30000","0.69225","1131.91"
"8.40000","0.70042","1144.25"
"8.50000","0.70848","1156.26"
"8.60000","0.71654","1167.99"
"8.70000","0.72501","1179.55"
"8.80000","0.73368","1193.02"
"8.90000","0.74174","1206.01"
"9.00000","0.75011","1218.57"
"9.10000","0.75888","1231.76"
"9.20000","0.76704","1244.06"
"9.30000","0.77500","1254.8"
"9.40000","0.78327","1267.03"
"9.50000","0.79194","1280.4"
"9.60000","0.80030","1292.76"
"9.70000","0.80867","1305.11"
"9.80000","0.81713","1317.16"
"9.90000","0.82510","1328.73"
"10.00000","0.83306","1341.21"
"10.10000","0.84153","1352.51"
"10.20000","0.85040","1363.68"
"10.30000","0.85886","1376.76"
"10.40000","0.86723","1389.47"
"10.50000","0.87539","1400.8"
"10.60000","0.88356","1412.15"
"10.70000","0.89172","1423.83"
"10.80000","0.89999","1435.41"
"10.90000","0.90865","1448.95"
"11.00000","0.91712","1462.22"
"11.10000","0.92539","1473.81"
"11.20000","0.93355","1485.3"
"11.30000","0.94161","1495.88"
"11.40000","0.94998","1507.67"
"11.50000","0.95845","1520.39"
"11.60000","0.96691","1532.97"
"11.70000","0.97548","1544.37"
"11.80000","0.98385","1556.27"
"11.90000","0.99201","1566.49"
"12.00000","0.99997","1576.77"
"12.10000","1.00824","1588.63"
"12.20000","1.01691","1601.28"
"12.30000","1.02547","1612.18"
"12.40000","1.03394","1623.79"
"12.50000","1.04200","1634.79"
"12.60000","1.04997","1645.8"
"12.70000","1.05833","1658.47"
"12.80000","1.06670","1670.02"
"12.90000","1.07527","1681.13"
"13.00000","1.08363","1693.3"
"13.10000","1.09210","1704.74"
"13.20000","1.10036","1715.01"
"13.30000","1.10843","1726.09"
"13.40000","1.11659","1736.12"
"13.50000","1.12506","1747.93"
"13.60000","1.13342","1758.93"
"13.70000","1.14189","1770.11"
"13.80000","1.15056","1781.25"
"13.90000","1.15882","1791.67"
"14.00000","1.16679","1802.3"
"14.10000","1.17485","1812.51"
"14.20000","1.18342","1822.91"
"14.30000","1.19219","1767.95"
"14.40000","1.20055","1783.88"
"14.50000","1.20872","1796.7"
"14.60000","1.21718","1809.75"
"14.70000","1.22515","1821.88"
"14.80000","1.23331","1834.43"
"14.90000","1.24198","1847.82"
"15.00000","1.25075","1860.68"
"15.10000","1.25881","1873.07"
"15.20000","1.26708","1883.69"
"15.30000","1.27534","1895.5"
"15.40000","1.28351","1906.88"
"15.50000","1.29167","1918.32"
"15.60000","1.30034","1930.58"
"15.70000","1.30881","1942.4"
"15.80000","1.31707","1954.01"
"15.90000","1.32523","1964.66"
"16.00000","1.33320","1976.7"
"16.10000","1.34146","1987.04"
"16.20000","1.34993","1998.61"
"16.30000","1.35840","2009.53"
"16.40000","1.36716","2021.98"
"16.50000","1.37543","2032.97"
"16.60000","1.38370","2043.26"
"16.70000","1.39176","2053.95"
"16.80000","1.39982","2064.52"
"16.90000","1.40839","2075.6"
"17.00000","1.41706","2087.77"
"17.10000","1.42563","2097.22"
"17.20000","1.43379","2107.81"
"17.30000","1.44175","2117.67"
"17.40000","1.44992","2128.65"
"17.50000","1.45838","2138.92"
"17.60000","1.46695","2150.47"
"17.70000","1.47542","2160.48"
"17.80000","1.48388","2171.3"
"17.90000","1.49225","2181.44"
"18.00000","1.50051","2193.2"
"18.10000","1.50848","2202.76"
"18.20000","1.51684","2212.72"
"18.30000","1.52541","2180.49"
"18.40000","1.53368","2180.77"
"18.50000","1.54204","2193.21"
"18.60000","1.55051","2205.17"
"18.70000","1.55857","2217.62"
"18.80000","1.56664","2228.85"
"18.90000","1.57490","2240.71"
"19.00000","1.58357","2252.69"
"19.10000","1.59204","2263.92"
"19.20000","1.60030","2276.04"
"19.30000","1.60836","2285.82"
"19.40000","1.61683","2298.14"
"19.50000","1.62489","2308.73"
"19.60000","1.63326","2320.19"
"19.70000","1.64203","2332.79"
"19.80000","1.65060","2343.21"
"19.90000","1.65836","2354.03"
"20.00000","1.66682","2364.88"
"20.10000","1.67539","2376.1"
"20.20000","1.68366","2386.7"
"20.30000","1.69192","2397.73"
"20.40000","1.70039","2407.49"
"20.50000","1.70886","2419.04"
"20.60000","1.71712","2429.28"
"20.70000","1.72528","2439.55"
"20.80000","1.73335","2449.71"
"20.90000","1.74181","2460.2"
"21.00000","1.74998","2470.8"
"21.10000","1.75865","2482.01"
"21.20000","1.76711","2491.7"
"21.30000","1.77548","2502.8"
"21.40000","1.78374","2513.1"
"21.50000","1.79171","2522.15"
"21.60000","1.79997","2532.34"
"21.70000","1.80854","2543.7"
"21.80000","1.81701","2553.36"
"21.90000","1.82527","2563.36"
"22.00000","1.83354","2571.99"
"22.10000","1.84170","2581.52"
"22.20000","1.84997","2592.38"
"22.30000","1.85833","2602.5"
"22.40000","1.86690","2612.69"
"22.50000","1.87537","2622.47"
"22.60000","1.88373","2572.45"
"22.70000","1.89220","2585.04"
"22.80000","1.90016","2597.79"
"22.90000","1.90843","2608.38"
"23.00000","1.91669","2619.88"
"23.10000","1.92516","2632.21"
"23.20000","1.93363","2643.99"
"23.30000","1.94219","2654.73"
"23.40000","1.95066","2666.15"
"23.50000","1.95852","2675.69"
"23.60000","1.96658","2686.72"
"23.70000","1.97505","2698.48"
"23.80000","1.98382","2709.77"
"23.90000","1.99209","2720.15"
"24.00000","2.00035","2730.36"
"24.10000","2.00862","2741.34"
"24.20000","2.01668","2751.15"
"24.30000","2.02474","2762.03"
"24.40000","2.03341","2771.69"
"24.50000","2.04228","2783.67"
"24.60000","2.05044","2793.77"
"24.70000","2.05841","2802.95"
"24.80000","2.06677","2813.59"
"24.90000","2.07514","2823.55"
"25.00000","2.08330","2834.23"
"25.10000","2.09167","2843.93"
"25.20000","2.10034","2854.5"
"25.30000","2.10870","2864.76"
"25.40000","2.11717","2874.8"
"25.50000","2.12513","2882.75"
"25.60000","2.13320","2893.06"
"25.70000","2.14156","2902.52"
"25.80000","2.15033","2913.95"
"25.90000","2.15890","2924.27"
"26.00000","2.16737","2933.52"
"26.10000","2.17563","2943.08"
"26.20000","2.18359","2952.55"
"26.30000","2.19166","2961.32"
"26.40000","2.19992","2971.33"
"26.50000","2.20869","2980.88"
"26.60000","2.21726","2990.39"
"26.70000","2.22552","2999.87"
"26.80000","2.23349","3007.2"
"26.90000","2.24155","2958.96"
"27.00000","2.25002","2973.44"
"27.10000","2.25848","2985.28"
"27.20000","2.26705","2996.63"
"27.30000","2.27552","3008.08"
"27.40000","2.28378","3018.37"
"27.50000","2.29195","3028.21"
"27.60000","2.29991","3038.44"
"27.70000","2.30817","3048.27"
"27.80000","2.31684","3059.87"
"27.90000","2.32521","3069.42"
"28.00000","2.33357","3078.95"
"28.10000","2.34224","3090.01"
"28.20000","2.35051","3100.26"
"28.30000","2.35827","3108.83"
"28.40000","2.36643","3119.45"
"28.50000","2.37520","3129.06"
"28.60000","2.38377","3140.7"
"28.70000","2.39193","3150.27"
"28.80000","2.40020","3159.74"
"28.90000","2.40846","3169.29"
"29.00000","2.41663","3179.32"
"29.10000","2.42489","3189.17"
"29.20000","2.43376","3198.92"
"29.30000","2.44243","3208.24"
"29.40000","2.45049","3217.89"
"29.50000","2.45866","3227.06"
"29.60000","2.46703","3236.18"
"29.70000","2.47529","3245.72"
"29.80000","2.48345","3254.62"
"29.90000","2.49202","3263.37"
"30.00000","2.50059","3273.1"
"30.10000","2.50885","3282.21"
"30.20000","2.51692","3291.77"
"30.30000","2.52488","3298.72"
"30.40000","2.53304","3307.65"
"30.50000","2.54161","3317.59"
"30.60000","2.55028","3327.22"
"30.70000","2.55885","3336.75"
"30.80000","2.56731","3345.35"
"30.90000","2.57558","3354.37"
"31.00000","2.58344","3362.37"
"31.10000","2.59171","3371.1"
"31.20000","2.60027","3368.52"
"31.30000","2.60894","3375.7"
"31.40000","2.61741","3384.28"
"31.50000","2.62547","3392.85"
"31.60000","2.63344","3401.07"
"31.70000","2.64150","3408.43"
"31.80000","2.64997","3415.83"
"31.90000","2.65853","3352.8"
"32.00000","2.66710","3367.99"
"32.10000","2.67537","3222.88"
"32.20000","2.68383","3204.73"
"32.30000","2.69190","3213.02"
"32.40000","2.70006","3220.8"
"32.50000","2.70853","3230.13"
"32.60000","2.71689","3238.47"
"32.70000","2.72516","3247.61"
"32.80000","2.73372","3257.03"
"32.90000","2.74209","3266.83"
"33.00000","2.75026","3276.62"
"33.10000","2.75822","3285.58"
"33.20000","2.76658","3294.73"
"33.30000","2.77525","3304.76"
"33.40000","2.78382","3314.75"
"33.50000","2.79198","3323.7"
"33.60000","2.80035","3333.21"
"33.70000","2.80851","3342.07"
"33.80000","2.81658","3351.46"
"33.90000","2.82504","3361.05"
"34.00000","2.83371","3370.79"
"34.10000","2.84218","3380.22"
"34.20000","2.85024","3389.38"
"34.30000","2.85861","3398.3"
"34.40000","2.86697","3407.25"
"34.50000","2.87514","3415.12"
"34.60000","2.88350","3422.83"
"34.70000","2.89207","3432.04"
"34.80000","2.90044","3440.96"
"34.90000","2.90870","3450.43"
"35.00000","2.91677","3457.33"
"35.10000","2.92503","3465.57"
"35.20000","2.93320","3474.57"
"35.30000","2.94146","3480.72"
"35.40000","2.95023","3490.21"
"35.50000","2.95890","3498.68"
"35.60000","2.96716","3506.69"
"35.70000","2.97513","3514.63"
"35.80000","2.98309","3522.3"
"35.90000","2.99145","3530.25"
"36.00000","3.00022","3538.54"
"36.10000","3.00869","3547.3"
"36.20000","3.01716","3555.21"
"36.30000","3.02542","3562.89"
"36.40000","3.03349","3570.27"
"36.50000","3.04175","3577.08"
"36.60000","3.05032","3584.83"
"36.70000","3.05868","3591.88"
"36.80000","3.06705","3600.03"
"36.90000","3.07572","3607.34"
"37.00000","3.08398","3615.15"
"37.10000","3.09184","3621.73"
"37.20000","3.10001","3628.38"
"37.30000","3.10848","3634.98"
"37.40000","3.11694","3641.52"
"37.50000","3.12521","3649.39"
"37.60000","3.13367","3656.05"
"37.70000","3.14234","3606.44"
"37.80000","3.15010","3573.91"
"37.90000","3.15817","3581.04"
"38.00000","3.16673","3588.71"
"38.10000","3.17550","3597.24"
"38.20000","3.18367","3604.92"
"38.30000","3.19203","3611.54"
"38.40000","3.20030","3619.48"
"38.50000","3.20826","3626.8"
"38.60000","3.21632","3633.02"
"38.70000","3.22509","3641.21"
"38.80000","3.23376","3648.84"
"38.90000","3.24203","3656.48"
"39.00000","3.25029","3663.45"
"39.10000","3.25876","3670.35"
"39.20000","3.26692","3675.85"
"39.30000","3.27509","3682.15"
"39.40000","3.28365","3688.86"
"39.50000","3.29232","3695.35"
"39.60000","3.30059","3701.9"
"39.70000","3.30885","3709.61"
"39.80000","3.31692","3715.6"
"39.90000","3.32498","3721.69"
"40.00000","3.33325","3728.48"
"40.10000","3.34181","3735.24"
"40.20000","3.35068","3742.32"
"40.30000","3.35915","3749.28"
"40.40000","3.36721","3754.9"
"40.50000","3.37528","3760.59"
"40.60000","3.38334","3765.49"
"40.70000","3.39181","3771.2"
"40.80000","3.40027","3777.66"
"40.90000","3.40864","3782.11"
"41.00000","3.41701","3783.03"
"41.10000","3.42507","3787.66"
"41.20000","3.43313","3792.09"
"41.30000","3.44160","3797.41"
"41.40000","3.45027","3804.04"
"41.50000","3.45863","3809.48"
"41.60000","3.46710","3815.31"
"41.70000","3.47547","3819.52"
"41.80000","3.48373","3825.36"
"41.90000","3.49189","3829.78"
"42.00000","3.50016","3835.71"
"42.10000","3.50863","3840.64"
"42.20000","3.51699","3845.32"
"42.30000","3.52556","3849.82"
"42.40000","3.53393","3854.81"
"42.50000","3.54229","3858.4"
"42.60000","3.55005","3862.8"
"42.70000","3.55822","3865.58"
"42.80000","3.56699","3794.51"
"42.90000","3.57555","3805.06"
"43.00000","3.58382","3812.66"
"43.10000","3.59208","3819.31"
"43.20000","3.60015","3826.7"
"43.30000","3.60831","3831.77"
"43.40000","3.61668","3838.38"
"43.50000","3.62545","3844.67"
"43.60000","3.63391","3851.35"
"43.70000","3.64188","3856.5"
"43.80000","3.65004","3862.12"
"43.90000","3.65861","3867.48"
"44.00000","3.66677","3872.73"
"44.10000","3.67504","3877.18"
"44.20000","3.68350","3882.95"
"44.30000","3.69207","3888.25"
"44.40000","3.70034","3892.51"
"44.50000","3.70850","3896.77"
"44.60000","3.71666","3900.81"
"44.70000","3.72483","3904.92"
"44.80000","3.73330","3909.21"
"44.90000","3.74196","3914.33"
"45.00000","3.75063","3918.44"
"45.10000","3.75880","3923.08"
"45.20000","3.76696","3926.72"
"45.30000","3.77502","3929.67"
"45.40000","3.78339","3932.52"
"45.50000","3.79196","3935.88"
"45.60000","3.80052","3940.44"
"45.70000","3.80889","3943.47"
"45.80000","3.81695","3946.82"
"45.90000","3.82492","3948.34"
"46.00000","3.83328","3950.07"
"46.10000","3.84185","3953.25"
"46.20000","3.85022","3955.95"
"46.30000","3.85868","3957.89"
"46.40000","3.86695","3960.32"
"46.50000","3.87541","3962.72"
"46.60000","3.88358","3964.15"
"46.70000","3.89164","3964.7"
"46.80000","3.90001","3966.46"
"46.90000","3.90847","3968.36"
"47.00000","3.91664","3969.24"
"47.10000","3.92521","3971.3"
"47.20000","3.93387","3972.84"
"47.30000","3.94184","3972.51"
"47.40000","3.94990","3971.99"
"47.50000","3.95837","3972.38"
"47.60000","3.96744","3973.73"
"47.70000","3.97550","3972.43"
"47.80000","3.98377","3971.88"
"47.90000","3.99203","3970.81"
"48.00000","4.00030","3968.83"
"48.10000","4.00846","3964.17"
"48.20000","4.01683","3959.47"
"48.30000","4.02550","3952.8"
"48.40000","4.03386","3940.96"
"48.50000","4.04193","3900.01"
"48.58600","4.04918","3643.74"
"48.61800","4.05200","3367"
"48.62200","4.05241","3056.29"
"48.62600","4.05271","2686.78"
"48.63000","4.05321","2278.4"