File: Data_Processing/Tensile-Data/Sequence_40.csv
General : Start date,"10/29/2024 10:44 AM"
General : End date,"10/29/2024 10:45 AM"
Specimen notes : Specimen note 1,"Day 2, green, 230, batch 1, seq 40"
Test : Rate 1,"5.00000",mm/min

Time,Extension,Load
(s),(mm),(N)
"0.00000","0.00000","0.63567"
"0.10000","0.00101","0.20630"
"0.20000","0.00756","6.56460"
"0.30000","0.02167","31.45170"
"0.40000","0.03205","52.10619"
"0.50000","0.04012","65.55147"
"0.60000","0.04909","80.86390"
"0.70000","0.05816","95.20396"
"0.80000","0.06683","109.629"
"0.90000","0.07519","122.818"
"1.00000","0.08366","136.533"
"1.10000","0.09202","149.932"
"1.20000","0.10019","162.904"
"1.30000","0.10835","176.307"
"1.40000","0.11682","189.442"
"1.50000","0.12549","202.896"
"1.60000","0.13385","216.588"
"1.70000","0.14202","229.551"
"1.80000","0.15008","242.544"
"1.90000","0.15835","255.066"
"2.00000","0.16671","268.212"
"2.10000","0.17528","281.148"
"2.20000","0.18365","295.437"
"2.30000","0.19221","309.014"
"2.40000","0.20038","321.818"
"2.50000","0.20824","334.074"
"2.60000","0.21650","345.997"
"2.70000","0.22507","360.087"
"2.80000","0.23344","373.072"
"2.90000","0.24180","386.336"
"3.00000","0.25017","398.6"
"3.10000","0.25843","411.024"
"3.20000","0.26660","422.908"
"3.30000","0.27497","435.928"
"3.40000","0.28333","448.915"
"3.50000","0.29180","461.156"
"3.60000","0.30026","474.304"
"3.70000","0.30863","485.829"
"3.80000","0.31700","497.691"
"3.90000","0.32496","510.104"
"4.00000","0.33312","522.281"
"4.10000","0.34189","535.09"
"4.20000","0.35056","547.635"
"4.30000","0.35903","559.67"
"4.40000","0.36719","570.711"
"4.50000","0.37536","582.13"
"4.60000","0.38332","593.23"
"4.70000","0.39158","604.062"
"4.80000","0.40025","616.862"
"4.90000","0.40872","628.433"
"5.00000","0.41708","639.882"
"5.10000","0.42515","651.077"
"5.20000","0.43331","661.763"
"5.30000","0.44138","672.567"
"5.40000","0.44984","684.017"
"5.50000","0.45851","695.698"
"5.60000","0.46698","706.87"
"5.70000","0.47534","717.862"
"5.80000","0.48351","728.167"
"5.90000","0.49157","738.301"
"6.00000","0.49973","749.242"
"6.10000","0.50830","759.473"
"6.20000","0.51687","770.912"
"6.30000","0.52544","781.724"
"6.40000","0.53360","791.085"
"6.50000","0.54187","802.322"
"6.60000","0.55013","812.501"
"6.70000","0.55830","821.887"
"6.80000","0.56676","833.026"
"6.90000","0.57523","843.573"
"7.00000","0.58380","854.83"
"7.10000","0.59206","864.385"
"7.20000","0.60023","874.702"
"7.30000","0.60809","882.855"
"7.40000","0.61655","891.118"
"7.50000","0.62522","899.994"
"7.60000","0.63339","908.369"
"7.70000","0.64175","917.396"
"7.80000","0.65052","926.324"
"7.90000","0.65848","933.819"
"8.00000","0.66655","942.372"
"8.10000","0.67491","950.852"
"8.20000","0.68358","959.138"
"8.30000","0.69185","967.728"
"8.40000","0.70001","976.28"
"8.50000","0.70838","985.596"
"8.60000","0.71644","993.963"
"8.70000","0.72461","1002.24"
"8.80000","0.73307","1011.09"
"8.90000","0.74194","1020.96"
"9.00000","0.75041","1029.37"
"9.10000","0.75817","1037.2"
"9.20000","0.76654","1045.51"
"9.30000","0.77510","1054.8"
"9.40000","0.78337","1063.94"
"9.50000","0.79183","1072.42"
"9.60000","0.80050","1080.77"
"9.70000","0.80877","1089.43"
"9.80000","0.81713","1097.93"
"9.90000","0.82520","1105.67"
"10.00000","0.83326","1113.9"
"10.10000","0.84163","1121.82"
"10.20000","0.85019","1130.9"
"10.30000","0.85846","1139.53"
"10.40000","0.86703","1148.4"
"10.50000","0.87539","1156.53"
"10.60000","0.88356","1165.18"
"10.70000","0.89162","1173.9"
"10.80000","0.89978","1181.46"
"10.90000","0.90835","1190.52"
"11.00000","0.91712","1199.85"
"11.10000","0.92529","1208.65"
"11.20000","0.93355","1216.12"
"11.30000","0.94151","1224.75"
"11.40000","0.94978","1232.82"
"11.50000","0.95825","1242.27"
"11.60000","0.96691","1250.62"
"11.70000","0.97528","1259.1"
"11.80000","0.98365","1267.98"
"11.90000","0.99191","1277.14"
"12.00000","1.00018","1285.57"
"12.10000","1.00834","1293.66"
"12.20000","1.01671","1301.81"
"12.30000","1.02497","1310.13"
"12.40000","1.03354","1319.72"
"12.50000","1.04221","1328.74"
"12.60000","1.05057","1336.95"
"12.70000","1.05843","1345.6"
"12.80000","1.06660","1353.11"
"12.90000","1.07506","1362.56"
"13.00000","1.08383","1371.84"
"13.10000","1.09200","1379.8"
"13.20000","1.10026","1387.68"
"13.30000","1.10863","1396.83"
"13.40000","1.11669","1405.72"
"13.50000","1.12476","1413.2"
"13.60000","1.13342","1422.19"
"13.70000","1.14199","1430.38"
"13.80000","1.15026","1439.12"
"13.90000","1.15842","1447.61"
"14.00000","1.16669","1455.8"
"14.10000","1.17465","1462.96"
"14.20000","1.18291","1471.54"
"14.30000","1.19158","1480.59"
"14.40000","1.20015","1490.57"
"14.50000","1.20841","1498.2"
"14.60000","1.21688","1506.94"
"14.70000","1.22505","1514.87"
"14.80000","1.23331","1522.37"
"14.90000","1.24158","1530.6"
"15.00000","1.25014","1539.85"
"15.10000","1.25881","1547.84"
"15.20000","1.26718","1555.72"
"15.30000","1.27544","1564.04"
"15.40000","1.28341","1572.23"
"15.50000","1.29147","1580.65"
"15.60000","1.29973","1589.12"
"15.70000","1.30850","1597.8"
"15.80000","1.31727","1606.63"
"15.90000","1.32544","1614.78"
"16.00000","1.33350","1622.23"
"16.10000","1.34166","1632.15"
"16.20000","1.34993","1639.28"
"16.30000","1.35830","1648.22"
"16.40000","1.36706","1657.63"
"16.50000","1.37533","1666.02"
"16.60000","1.38359","1673.17"
"16.70000","1.39186","1682.54"
"16.80000","1.39992","1689.71"
"16.90000","1.40829","1697.79"
"17.00000","1.41676","1705.38"
"17.10000","1.42492","1713.93"
"17.20000","1.43339","1722.44"
"17.30000","1.44216","1731.36"
"17.40000","1.45022","1737.58"
"17.50000","1.45798","1746.15"
"17.60000","1.46635","1755.03"
"17.70000","1.47511","1761.98"
"17.80000","1.48378","1771.02"
"17.90000","1.49205","1778.82"
"18.00000","1.50031","1787.32"
"18.10000","1.50858","1794.66"
"18.20000","1.51664","1803.98"
"18.30000","1.52491","1810.34"
"18.40000","1.53358","1819.08"
"18.50000","1.54224","1826.98"
"18.60000","1.55031","1834.1"
"18.70000","1.55837","1841.87"
"18.80000","1.56684","1848.59"
"18.90000","1.57500","1856.47"
"19.00000","1.58327","1863.96"
"19.10000","1.59183","1871.42"
"19.20000","1.60030","1878.98"
"19.30000","1.60877","1886.33"
"19.40000","1.61693","1893.49"
"19.50000","1.62479","1900.76"
"19.60000","1.63306","1908.01"
"19.70000","1.64132","1914.97"
"19.80000","1.65009","1923.17"
"19.90000","1.65876","1930.08"
"20.00000","1.66723","1938"
"20.10000","1.67529","1945.01"
"20.20000","1.68325","1952.5"
"20.30000","1.69142","1959.63"
"20.40000","1.70009","1968.55"
"20.50000","1.70875","1976.07"
"20.60000","1.71712","1982.61"
"20.70000","1.72528","1990.41"
"20.80000","1.73345","1997.83"
"20.90000","1.74161","2004.96"
"21.00000","1.74998","2012.43"
"21.10000","1.75855","2019.44"
"21.20000","1.76711","2028.04"
"21.30000","1.77558","2035.78"
"21.40000","1.78385","2043.49"
"21.50000","1.79181","2050.58"
"21.60000","1.80007","2058.34"
"21.70000","1.80834","2065.68"
"21.80000","1.81670","2072.92"
"21.90000","1.82517","2080.26"
"22.00000","1.83384","2087.19"
"22.10000","1.84221","2095.79"
"22.20000","1.85007","2102.85"
"22.30000","1.85803","2109.77"
"22.40000","1.86650","2118.46"
"22.50000","1.87527","2125.22"
"22.60000","1.88363","2133.56"
"22.70000","1.89190","2140.33"
"22.80000","1.90026","2147.87"
"22.90000","1.90823","2155.37"
"23.00000","1.91639","2162.3"
"23.10000","1.92496","2170.37"
"23.20000","1.93373","2179.47"
"23.30000","1.94209","2186.24"
"23.40000","1.95016","2194.45"
"23.50000","1.95862","2201.43"
"23.60000","1.96689","2208.32"
"23.70000","1.97515","2215.38"
"23.80000","1.98362","2224.69"
"23.90000","1.99209","2231.93"
"24.00000","2.00045","2240.21"
"24.10000","2.00872","2248.21"
"24.20000","2.01678","2254.09"
"24.30000","2.02494","2260.87"
"24.40000","2.03311","2268.85"
"24.50000","2.04168","2276.1"
"24.60000","2.05024","2284.84"
"24.70000","2.05871","2292.67"
"24.80000","2.06697","2299.59"
"24.90000","2.07504","2307.07"
"25.00000","2.08300","2314.07"
"25.10000","2.09137","2320.95"
"25.20000","2.10004","2329.21"
"25.30000","2.10840","2337.21"
"25.40000","2.11687","2344.84"
"25.50000","2.12513","2352.33"
"25.60000","2.13330","2360.64"
"25.70000","2.14156","2366.8"
"25.80000","2.15003","2375.29"
"25.90000","2.15870","2383.87"
"26.00000","2.16716","2391.72"
"26.10000","2.17543","2399.25"
"26.20000","2.18379","2406.33"
"26.30000","2.19176","2413.49"
"26.40000","2.19992","2420.64"
"26.50000","2.20849","2428.85"
"26.60000","2.21686","2436.42"
"26.70000","2.22512","2443.9"
"26.80000","2.23369","2452.21"
"26.90000","2.24226","2459.32"
"27.00000","2.25002","2466.3"
"27.10000","2.25808","2472.96"
"27.20000","2.26665","2480.68"
"27.30000","2.27521","2489.76"
"27.40000","2.28348","2497.78"
"27.50000","2.29185","2504.38"
"27.60000","2.30011","2512.18"
"27.70000","2.30817","2519.37"
"27.80000","2.31634","2526.16"
"27.90000","2.32511","2534.27"
"28.00000","2.33368","2541.7"
"28.10000","2.34204","2548.68"
"28.20000","2.35021","2556.48"
"28.30000","2.35847","2564.67"
"28.40000","2.36674","2571.25"
"28.50000","2.37500","2578.11"
"28.60000","2.38347","2585.44"
"28.70000","2.39193","2593.73"
"28.80000","2.40040","2601.93"
"28.90000","2.40867","2608.65"
"29.00000","2.41663","2615.53"
"29.10000","2.42489","2623.55"
"29.20000","2.43326","2631.02"
"29.30000","2.44163","2638.49"
"29.40000","2.45019","2646.85"
"29.50000","2.45876","2654.7"
"29.60000","2.46703","2661.8"
"29.70000","2.47499","2669.77"
"29.80000","2.48305","2675.69"
"29.90000","2.49152","2684.33"
"30.00000","2.50029","2692.55"
"30.10000","2.50875","2699.91"
"30.20000","2.51692","2706.75"
"30.30000","2.52498","2715.3"
"30.40000","2.53315","2722.45"
"30.50000","2.54151","2730.01"
"30.60000","2.54998","2737.03"
"30.70000","2.55855","2744.4"
"30.80000","2.56681","2752.03"
"30.90000","2.57528","2759.21"
"31.00000","2.58364","2766.9"
"31.10000","2.59171","2775.28"
"31.20000","2.60007","2781.8"
"31.30000","2.60844","2789.37"
"31.40000","2.61691","2797.65"
"31.50000","2.62547","2805.13"
"31.60000","2.63404","2812.59"
"31.70000","2.64200","2820.31"
"31.80000","2.64986","2826.22"
"31.90000","2.65823","2833.99"
"32.00000","2.66700","2841.67"
"32.10000","2.67547","2850.29"
"32.20000","2.68373","2857.66"
"32.30000","2.69190","2864.55"
"32.40000","2.70036","2871.95"
"32.50000","2.70822","2879.41"
"32.60000","2.71649","2886.63"
"32.70000","2.72546","2895.68"
"32.80000","2.73403","2903.5"
"32.90000","2.74189","2909.19"
"33.00000","2.74995","2916.71"
"33.10000","2.75842","2925.29"
"33.20000","2.76658","2931.75"
"33.30000","2.77485","2939.5"
"33.40000","2.78342","2947.58"
"33.50000","2.79178","2954.22"
"33.60000","2.80015","2961.49"
"33.70000","2.80831","2968.48"
"33.80000","2.81648","2976.18"
"33.90000","2.82494","2983.44"
"34.00000","2.83321","2991.2"
"34.10000","2.84188","2999.33"
"34.20000","2.85044","3007.65"
"34.30000","2.85871","3013.59"
"34.40000","2.86687","3020.67"
"34.50000","2.87474","3028.65"
"34.60000","2.88310","3035.13"
"34.70000","2.89187","3042.81"
"34.80000","2.90054","3051.15"
"34.90000","2.90901","3058.63"
"35.00000","2.91697","3065.84"
"35.10000","2.92493","3073.39"
"35.20000","2.93330","3080.91"
"35.30000","2.94176","3088.84"
"35.40000","2.95023","3095.16"
"35.50000","2.95860","3101.74"
"35.60000","2.96706","3109.37"
"35.70000","2.97533","3115.69"
"35.80000","2.98329","3123.38"
"35.90000","2.99135","3130.21"
"36.00000","2.99992","3137.61"
"36.10000","3.00829","3145.6"
"36.20000","3.01645","3151.28"
"36.30000","3.02492","3158.91"
"36.40000","3.03349","3166.39"
"36.50000","3.04165","3173.49"
"36.60000","3.04971","3180.47"
"36.70000","3.05838","3187.41"
"36.80000","3.06715","3195.4"
"36.90000","3.07542","3202.7"
"37.00000","3.08358","3209.27"
"37.10000","3.09215","3216.91"
"37.20000","3.10011","3223.94"
"37.30000","3.10827","3230.39"
"37.40000","3.11684","3237.74"
"37.50000","3.12561","3244.98"
"37.60000","3.13377","3252.14"
"37.70000","3.14174","3259.24"
"37.80000","3.15000","3266.44"
"37.90000","3.15847","3273.13"
"38.00000","3.16694","3281.1"
"38.10000","3.17520","3288.7"
"38.20000","3.18367","3295.13"
"38.30000","3.19203","3302.76"
"38.40000","3.20030","3309.28"
"38.50000","3.20836","3316.48"
"38.60000","3.21663","3322.69"
"38.70000","3.22489","3329.8"
"38.80000","3.23326","3336.75"
"38.90000","3.24172","3343.97"
"39.00000","3.25019","3351.59"
"39.10000","3.25856","3358.19"
"39.20000","3.26682","3365.05"
"39.30000","3.27479","3371"
"39.40000","3.28325","3378.31"
"39.50000","3.29182","3385.21"
"39.60000","3.30039","3392.1"
"39.70000","3.30865","3398.88"
"39.80000","3.31682","3406.12"
"39.90000","3.32488","3412.06"
"40.00000","3.33325","3419.34"
"40.10000","3.34181","3426.66"
"40.20000","3.35038","3434.02"
"40.30000","3.35854","3440.74"
"40.40000","3.36701","3447.2"
"40.50000","3.37528","3453.88"
"40.60000","3.38324","3460.42"
"40.70000","3.39161","3466.08"
"40.80000","3.39997","3474.42"
"40.90000","3.40834","3480.89"
"41.00000","3.41721","3487.88"
"41.10000","3.42567","3494.73"
"41.20000","3.43384","3502.21"
"41.30000","3.44160","3506.9"
"41.40000","3.44976","3514.3"
"41.50000","3.45833","3521.14"
"41.60000","3.46680","3527.92"
"41.70000","3.47516","3535.03"
"41.80000","3.48363","3541.69"
"41.90000","3.49200","3547.82"
"42.00000","3.49986","3554.44"
"42.10000","3.50832","3560.95"
"42.20000","3.51709","3567.38"
"42.30000","3.52556","3573.96"
"42.40000","3.53362","3580.3"
"42.50000","3.54189","3586.84"
"42.60000","3.55015","3593.34"
"42.70000","3.55832","3598.52"
"42.80000","3.56658","3605.5"
"42.90000","3.57525","3612.01"
"43.00000","3.58362","3617.83"
"43.10000","3.59198","3624.42"
"43.20000","3.60025","3630.95"
"43.30000","3.60831","3636.52"
"43.40000","3.61658","3642.77"
"43.50000","3.62504","3648.8"
"43.60000","3.63371","3656.46"
"43.70000","3.64218","3662.3"
"43.80000","3.65054","3668.14"
"43.90000","3.65851","3672.98"
"44.00000","3.66647","3680.08"
"44.10000","3.67463","3685.6"
"44.20000","3.68310","3692.09"
"44.30000","3.69207","3698.96"
"44.40000","3.70054","3704.74"
"44.50000","3.70870","3710.52"
"44.60000","3.71677","3716.62"
"44.70000","3.72503","3721.44"
"44.80000","3.73330","3727.27"
"44.90000","3.74166","3733.12"
"45.00000","3.75033","3739.4"
"45.10000","3.75859","3745.09"
"45.20000","3.76706","3751.06"
"45.30000","3.77512","3756.18"
"45.40000","3.78319","3760.98"
"45.50000","3.79155","3766.78"
"45.60000","3.80022","3772.46"
"45.70000","3.80839","3776.95"
"45.80000","3.81695","3782.93"
"45.90000","3.82552","3788.75"
"46.00000","3.83359","3792.68"
"46.10000","3.84165","3798.08"
"46.20000","3.84991","3802.45"
"46.30000","3.85858","3807.27"
"46.40000","3.86705","3812.57"
"46.50000","3.87511","3816.72"
"46.60000","3.88338","3821.54"
"46.70000","3.89164","3825.7"
"46.80000","3.89981","3829.98"
"46.90000","3.90827","3834.4"
"47.00000","3.91704","3839.37"
"47.10000","3.92551","3843.06"
"47.20000","3.93347","3846.33"
"47.30000","3.94153","3850.31"
"47.40000","3.94990","3854.14"
"47.50000","3.95827","3857.7"
"47.60000","3.96673","3860.97"
"47.70000","3.97530","3864.35"
"47.80000","3.98377","3867.58"
"47.90000","3.99203","3869.98"
"48.00000","4.00010","3872.27"
"48.10000","4.00836","3874.33"
"48.20000","4.01673","3875.92"
"48.30000","4.02479","3877.52"
"48.40000","4.03336","3879.54"
"48.50000","4.04203","3881.15"
"48.60000","4.05039","3882"
"48.70000","4.05856","3881.66"
"48.80000","4.06662","3880.76"
"48.90000","4.07488","3879.43"
"49.00000","4.08345","3878.29"
"49.10000","4.09232","3877.3"
"49.20000","4.10059","3873.72"
"49.30000","4.10855","3868.88"
"49.40000","4.11661","3862.86"
"49.50000","4.12488","3854.43"
"49.60000","4.13324","3841.96"
"49.70000","4.14191","3826.33"
"49.80000","4.15038","3801.33"
"49.90000","4.15854","3754.49"
"49.95200","4.16318","3402.65"
"49.95600","4.16348","3055.82"
"49.96000","4.16389","2654.06"
"49.96400","4.16429","2226.08"