File: Data_Processing/Tensile-Data/Sequence_52.csv
General : Start date,"11/5/2024 8:38 AM"
General : End date,"11/5/2024 8:39 AM"
Specimen notes : Specimen note 1,"Day 3, green, 215, batch 20, seq 52"
Test : Rate 1,"5.00000",mm/min

Time,Extension,Load
(s),(mm),(N)
"0.00000","0.00000","0.01463"
"0.10000","0.00111","0.71040"
"0.20000","0.00887","9.03771"
"0.30000","0.02228","34.04390"
"0.40000","0.03195","54.05434"
"0.50000","0.04062","70.09151"
"0.60000","0.04959","84.19261"
"0.70000","0.05806","98.14561"
"0.80000","0.06622","112.351"
"0.90000","0.07479","125.404"
"1.00000","0.08356","139.475"
"1.10000","0.09213","154.955"
"1.20000","0.10019","167.609"
"1.30000","0.10845","182.416"
"1.40000","0.11682","195.992"
"1.50000","0.12508","208.931"
"1.60000","0.13345","221.545"
"1.70000","0.14212","236.012"
"1.80000","0.15038","249.053"
"1.90000","0.15865","263.088"
"2.00000","0.16712","275.691"
"2.10000","0.17528","289.214"
"2.20000","0.18344","301.901"
"2.30000","0.19181","315.951"
"2.40000","0.20028","330.189"
"2.50000","0.20864","343.77"
"2.60000","0.21691","357.894"
"2.70000","0.22527","370.196"
"2.80000","0.23354","384.706"
"2.90000","0.24150","396.21"
"3.00000","0.24997","410.856"
"3.10000","0.25864","423.929"
"3.20000","0.26700","438.035"
"3.30000","0.27527","450.251"
"3.40000","0.28323","463.403"
"3.50000","0.29150","475.787"
"3.60000","0.29996","489.24"
"3.70000","0.30853","502.988"
"3.80000","0.31679","514.88"
"3.90000","0.32496","529.372"
"4.00000","0.33343","541.615"
"4.10000","0.34189","555.022"
"4.20000","0.35006","567.74"
"4.30000","0.35832","579.006"
"4.40000","0.36699","593.873"
"4.50000","0.37546","606.634"
"4.60000","0.38372","619.191"
"4.70000","0.39209","631.483"
"4.80000","0.40025","644.136"
"4.90000","0.40852","655.853"
"5.00000","0.41698","668.768"
"5.10000","0.42535","681.811"
"5.20000","0.43372","693.739"
"5.30000","0.44208","706.82"
"5.40000","0.45045","717.769"
"5.50000","0.45851","730.449"
"5.60000","0.46637","740.714"
"5.70000","0.47504","754.175"
"5.80000","0.48361","766.706"
"5.90000","0.49207","778.938"
"6.00000","0.50034","791.199"
"6.10000","0.50850","802.344"
"6.20000","0.51657","814.007"
"6.30000","0.52473","824.891"
"6.40000","0.53350","837.281"
"6.50000","0.54207","849.916"
"6.60000","0.55003","860.321"
"6.70000","0.55830","872.357"
"6.80000","0.56676","882.886"
"6.90000","0.57523","895.115"
"7.00000","0.58339","905.757"
"7.10000","0.59166","917.813"
"7.20000","0.60043","928.839"
"7.30000","0.60889","940.943"
"7.40000","0.61706","950.568"
"7.50000","0.62522","962.616"
"7.60000","0.63329","972.895"
"7.70000","0.64155","984.411"
"7.80000","0.65002","995.567"
"7.90000","0.65869","1006.21"
"8.00000","0.66715","1017.37"
"8.10000","0.67522","1028.02"
"8.20000","0.68328","1037.68"
"8.30000","0.69144","1049.19"
"8.40000","0.69991","1058.97"
"8.50000","0.70858","1070.7"
"8.60000","0.71695","1080.73"
"8.70000","0.72521","1090.41"
"8.80000","0.73337","1101.94"
"8.90000","0.74124","1110.52"
"9.00000","0.74970","1121.33"
"9.10000","0.75837","1131.93"
"9.20000","0.76684","1142.83"
"9.30000","0.77520","1153.52"
"9.40000","0.78367","1164.03"
"9.50000","0.79194","1173.36"
"9.60000","0.80000","1184.23"
"9.70000","0.80826","1193.69"
"9.80000","0.81673","1204.39"
"9.90000","0.82520","1214.9"
"10.00000","0.83366","1224.91"
"10.10000","0.84213","1234.64"
"10.20000","0.85030","1244.28"
"10.30000","0.85826","1253.88"
"10.40000","0.86652","1262.53"
"10.50000","0.87519","1272.67"
"10.60000","0.88356","1282.2"
"10.70000","0.89192","1290.46"
"10.80000","0.90049","1300.14"
"10.90000","0.90855","1308.86"
"11.00000","0.91652","1316.12"
"11.10000","0.92498","1324.77"
"11.20000","0.93345","1334.41"
"11.30000","0.94192","1342.63"
"11.40000","0.95018","1351.1"
"11.50000","0.95825","1359.48"
"11.60000","0.96681","1368.06"
"11.70000","0.97488","1376.4"
"11.80000","0.98324","1385.01"
"11.90000","0.99181","1394.47"
"12.00000","1.00028","1402.59"
"12.10000","1.00854","1412.08"
"12.20000","1.01671","1420.65"
"12.30000","1.02507","1429.32"
"12.40000","1.03324","1438.76"
"12.50000","1.04160","1448.14"
"12.60000","1.05007","1456.37"
"12.70000","1.05904","1466.33"
"12.80000","1.06710","1474.02"
"12.90000","1.07506","1483.91"
"13.00000","1.08343","1491.92"
"13.10000","1.09190","1500.18"
"13.20000","1.10036","1509.28"
"13.30000","1.10873","1517.29"
"13.40000","1.11710","1526.13"
"13.50000","1.12546","1534.4"
"13.60000","1.13342","1543.28"
"13.70000","1.14159","1551.22"
"13.80000","1.15006","1559.32"
"13.90000","1.15852","1568.97"
"14.00000","1.16699","1577.91"
"14.10000","1.17546","1585.04"
"14.20000","1.18362","1594.25"
"14.30000","1.19178","1602.14"
"14.40000","1.19985","1611.53"
"14.50000","1.20821","1619.83"
"14.60000","1.21688","1629.24"
"14.70000","1.22515","1637.91"
"14.80000","1.23361","1645.41"
"14.90000","1.24198","1654.36"
"15.00000","1.24994","1663.07"
"15.10000","1.25811","1670.68"
"15.20000","1.26657","1678.5"
"15.30000","1.27524","1688.45"
"15.40000","1.28371","1695.28"
"15.50000","1.29207","1703.23"
"15.60000","1.30044","1710.77"
"15.70000","1.30840","1718.43"
"15.80000","1.31657","1725.83"
"15.90000","1.32513","1734.77"
"16.00000","1.33390","1742.72"
"16.10000","1.34207","1751.67"
"16.20000","1.35023","1758.93"
"16.30000","1.35870","1767.4"
"16.40000","1.36696","1775.36"
"16.50000","1.37493","1783.03"
"16.60000","1.38329","1791.47"
"16.70000","1.39196","1799.34"
"16.80000","1.40033","1807.9"
"16.90000","1.40859","1815.42"
"17.00000","1.41686","1823.8"
"17.10000","1.42502","1830.56"
"17.20000","1.43318","1838.95"
"17.30000","1.44155","1846.96"
"17.40000","1.45022","1856.11"
"17.50000","1.45869","1863.4"
"17.60000","1.46685","1870.96"
"17.70000","1.47491","1878.27"
"17.80000","1.48318","1885.82"
"17.90000","1.49164","1895.21"
"18.00000","1.50031","1903.27"
"18.10000","1.50868","1911"
"18.20000","1.51694","1919.21"
"18.30000","1.52521","1927.12"
"18.40000","1.53347","1935.39"
"18.50000","1.54174","1942.15"
"18.60000","1.55011","1951.09"
"18.70000","1.55857","1958.74"
"18.80000","1.56704","1967.31"
"18.90000","1.57551","1975.06"
"19.00000","1.58357","1983.26"
"19.10000","1.59163","1990.24"
"19.20000","1.59970","1997.66"
"19.30000","1.60806","2004.75"
"19.40000","1.61663","2013.24"
"19.50000","1.62510","2022.42"
"19.60000","1.63356","2029.01"
"19.70000","1.64183","2038.29"
"19.80000","1.64969","2045.29"
"19.90000","1.65806","2054.56"
"20.00000","1.66682","2062.67"
"20.10000","1.67539","2070.4"
"20.20000","1.68366","2077.35"
"20.30000","1.69192","2085.41"
"20.40000","1.70019","2093.81"
"20.50000","1.70825","2101.69"
"20.60000","1.71652","2109.79"
"20.70000","1.72518","2117.8"
"20.80000","1.73365","2125.09"
"20.90000","1.74192","2132.7"
"21.00000","1.75028","2140.56"
"21.10000","1.75855","2148.54"
"21.20000","1.76671","2155.72"
"21.30000","1.77488","2164.92"
"21.40000","1.78344","2171.52"
"21.50000","1.79211","2179.89"
"21.60000","1.80038","2187.64"
"21.70000","1.80844","2194.96"
"21.80000","1.81660","2203.73"
"21.90000","1.82497","2211.03"
"22.00000","1.83334","2219.62"
"22.10000","1.84180","2227.05"
"22.20000","1.85057","2234.76"
"22.30000","1.85884","2243.92"
"22.40000","1.86690","2250.95"
"22.50000","1.87486","2258.78"
"22.60000","1.88323","2266.05"
"22.70000","1.89180","2275.05"
"22.80000","1.90016","2283.27"
"22.90000","1.90863","2289.72"
"23.00000","1.91699","2298.69"
"23.10000","1.92506","2306.18"
"23.20000","1.93312","2313.25"
"23.30000","1.94149","2322.02"
"23.40000","1.94995","2329.84"
"23.50000","1.95842","2337.97"
"23.60000","1.96699","2347.22"
"23.70000","1.97556","2354.12"
"23.80000","1.98362","2361.97"
"23.90000","1.99158","2369.32"
"24.00000","1.99995","2376.85"
"24.10000","2.00851","2386.22"
"24.20000","2.01708","2393.7"
"24.30000","2.02545","2401.74"
"24.40000","2.03381","2410.32"
"24.50000","2.04178","2417.71"
"24.60000","2.04984","2426.11"
"24.70000","2.05831","2433.54"
"24.80000","2.06687","2442.37"
"24.90000","2.07534","2450.36"
"25.00000","2.08361","2457.86"
"25.10000","2.09167","2465.54"
"25.20000","2.10004","2473.49"
"25.30000","2.10810","2480.77"
"25.40000","2.11667","2489.73"
"25.50000","2.12533","2498.24"
"25.60000","2.13350","2504.23"
"25.70000","2.14176","2513.28"
"25.80000","2.15023","2520.94"
"25.90000","2.15860","2528.87"
"26.00000","2.16676","2536.34"
"26.10000","2.17513","2543.55"
"26.20000","2.18369","2552.64"
"26.30000","2.19216","2559.35"
"26.40000","2.20043","2567.1"
"26.50000","2.20859","2575.09"
"26.60000","2.21675","2582.59"
"26.70000","2.22492","2590.77"
"26.80000","2.23328","2597.72"
"26.90000","2.24195","2606.12"
"27.00000","2.25052","2614.5"
"27.10000","2.25879","2622.12"
"27.20000","2.26675","2629.12"
"27.30000","2.27501","2637.69"
"27.40000","2.28338","2644.99"
"27.50000","2.29174","2652.74"
"27.60000","2.30031","2661.34"
"27.70000","2.30868","2668.23"
"27.80000","2.31684","2677.65"
"27.90000","2.32491","2683.33"
"28.00000","2.33307","2691.32"
"28.10000","2.34174","2699.43"
"28.20000","2.35021","2707.55"
"28.30000","2.35837","2715.65"
"28.40000","2.36694","2722.8"
"28.50000","2.37530","2731.08"
"28.60000","2.38347","2737.79"
"28.70000","2.39153","2745.21"
"28.80000","2.39990","2752.98"
"28.90000","2.40846","2760.83"
"29.00000","2.41693","2769.04"
"29.10000","2.42550","2777.58"
"29.20000","2.43376","2784.87"
"29.30000","2.44163","2791.69"
"29.40000","2.44979","2798.96"
"29.50000","2.45846","2806.6"
"29.60000","2.46723","2815.58"
"29.70000","2.47559","2824.14"
"29.80000","2.48376","2830.82"
"29.90000","2.49192","2838.09"
"30.00000","2.49998","2844.06"
"30.10000","2.50805","2852.11"
"30.20000","2.51672","2859.63"
"30.30000","2.52508","2867.64"
"30.40000","2.53325","2875.6"
"30.50000","2.54161","2882.59"
"30.60000","2.55008","2891.02"
"30.70000","2.55824","2897.81"
"30.80000","2.56631","2905.36"
"30.90000","2.57487","2913.09"
"31.00000","2.58344","2921.67"
"31.10000","2.59191","2928.4"
"31.20000","2.60027","2936.75"
"31.30000","2.60854","2944.33"
"31.40000","2.61670","2951.19"
"31.50000","2.62487","2959.05"
"31.60000","2.63344","2966.69"
"31.70000","2.64220","2974.94"
"31.80000","2.65047","2982.28"
"31.90000","2.65853","2988.95"
"32.00000","2.66670","2996.57"
"32.10000","2.67516","3003.73"
"32.20000","2.68343","3011.9"
"32.30000","2.69190","3019.03"
"32.40000","2.70036","3026.55"
"32.50000","2.70883","3034.48"
"32.60000","2.71699","3041"
"32.70000","2.72496","3049.17"
"32.80000","2.73312","3055.59"
"32.90000","2.74169","3064.2"
"33.00000","2.75036","3072.68"
"33.10000","2.75892","3080.19"
"33.20000","2.76719","3086.46"
"33.30000","2.77545","3094.92"
"33.40000","2.78332","3101.86"
"33.50000","2.79138","3108.89"
"33.60000","2.80005","3116.88"
"33.70000","2.80851","3124.2"
"33.80000","2.81698","3132.47"
"33.90000","2.82535","3139.34"
"34.00000","2.83351","3147.21"
"34.10000","2.84137","3154.11"
"34.20000","2.84964","3160.43"
"34.30000","2.85841","3169.93"
"34.40000","2.86707","3176.77"
"34.50000","2.87534","3184.06"
"34.60000","2.88361","3191.82"
"34.70000","2.89187","3198.59"
"34.80000","2.89993","3206.04"
"34.90000","2.90820","3212.83"
"35.00000","2.91687","3220.74"
"35.10000","2.92533","3228.71"
"35.20000","2.93380","3236.36"
"35.30000","2.94207","3241.97"
"35.40000","2.95033","3250.5"
"35.50000","2.95849","3257.18"
"35.60000","2.96656","3263.86"
"35.70000","2.97523","3271.66"
"35.80000","2.98379","3278.64"
"35.90000","2.99206","3286.53"
"36.00000","3.00022","3293.44"
"36.10000","3.00819","3300.43"
"36.20000","3.01625","3307.62"
"36.30000","3.02482","3314.47"
"36.40000","3.03338","3323.14"
"36.50000","3.04205","3329.47"
"36.60000","3.05042","3337.35"
"36.70000","3.05848","3344.71"
"36.80000","3.06675","3349.96"
"36.90000","3.07511","3358.5"
"37.00000","3.08358","3364.87"
"37.10000","3.09205","3372.95"
"37.20000","3.10041","3380.15"
"37.30000","3.10868","3386.82"
"37.40000","3.11674","3393.19"
"37.50000","3.12480","3399.81"
"37.60000","3.13337","3406.95"
"37.70000","3.14194","3415.07"
"37.80000","3.15041","3421.53"
"37.90000","3.15877","3428.4"
"38.00000","3.16704","3435.45"
"38.10000","3.17510","3442.37"
"38.20000","3.18316","3449.11"
"38.30000","3.19153","3455.61"
"38.40000","3.20010","3462.84"
"38.50000","3.20866","3470.9"
"38.60000","3.21713","3475.67"
"38.70000","3.22530","3483.99"
"38.80000","3.23326","3490.1"
"38.90000","3.24142","3496.83"
"39.00000","3.24999","3505.2"
"39.10000","3.25876","3511.69"
"39.20000","3.26712","3516.99"
"39.30000","3.27529","3523.84"
"39.40000","3.28355","3530.5"
"39.50000","3.29162","3537.2"
"39.60000","3.29978","3543.51"
"39.70000","3.30835","3549.95"
"39.80000","3.31702","3556.96"
"39.90000","3.32518","3564.38"
"40.00000","3.33345","3570.76"
"40.10000","3.34201","3577.33"
"40.20000","3.35028","3583.51"
"40.30000","3.35834","3589.89"
"40.40000","3.36661","3595.73"
"40.50000","3.37528","3602.78"
"40.60000","3.38374","3610.23"
"40.70000","3.39201","3615.94"
"40.80000","3.40027","3622.33"
"40.90000","3.40854","3628"
"41.00000","3.41670","3634.56"
"41.10000","3.42507","3640.55"
"41.20000","3.43364","3647.35"
"41.30000","3.44210","3653.01"
"41.40000","3.45017","3659.26"
"41.50000","3.45813","3665.13"
"41.60000","3.46639","3671.53"
"41.70000","3.47486","3677.93"
"41.80000","3.48353","3684.06"
"41.90000","3.49179","3690.87"
"42.00000","3.50036","3696.91"
"42.10000","3.50853","3702.68"
"42.20000","3.51669","3709.28"
"42.30000","3.52485","3714.65"
"42.40000","3.53352","3720.51"
"42.50000","3.54199","3726.71"
"42.60000","3.55046","3732.3"
"42.70000","3.55892","3738.74"
"42.80000","3.56719","3742.98"
"42.90000","3.57515","3749.62"
"43.00000","3.58321","3753.91"
"43.10000","3.59168","3760.39"
"43.20000","3.60025","3765.59"
"43.30000","3.60871","3771.02"
"43.40000","3.61708","3776.32"
"43.50000","3.62524","3781.69"
"43.60000","3.63321","3787.23"
"43.70000","3.64147","3792.19"
"43.80000","3.65014","3797.73"
"43.90000","3.65861","3802.58"
"44.00000","3.66697","3808.49"
"44.10000","3.67534","3812.49"
"44.20000","3.68370","3817.8"
"44.30000","3.69167","3822.69"
"44.40000","3.69993","3826.69"
"44.50000","3.70830","3832.01"
"44.60000","3.71666","3837.09"
"44.70000","3.72513","3842.18"
"44.80000","3.73360","3845.51"
"44.90000","3.74206","3850.11"
"45.00000","3.75013","3855.17"
"45.10000","3.75819","3859.16"
"45.20000","3.76676","3862.9"
"45.30000","3.77553","3867.11"
"45.40000","3.78379","3871.51"
"45.50000","3.79196","3874.95"
"45.60000","3.80002","3878.15"
"45.70000","3.80808","3881.54"
"45.80000","3.81655","3884.9"
"45.90000","3.82522","3888.85"
"46.00000","3.83379","3892.24"
"46.10000","3.84225","3895.9"
"46.20000","3.85032","3896.89"
"46.30000","3.85838","3900.12"
"46.40000","3.86665","3901.96"
"46.50000","3.87501","3904.07"
"46.60000","3.88368","3906.82"
"46.70000","3.89205","3908.35"
"46.80000","3.90021","3909.6"
"46.90000","3.90847","3911.82"
"47.00000","3.91644","3911.53"
"47.10000","3.92490","3911.74"
"47.20000","3.93347","3913.63"
"47.30000","3.94174","3913.06"
"47.40000","3.95030","3913.06"
"47.50000","3.95877","3912.16"
"47.60000","3.96693","3909.79"
"47.70000","3.97490","3907.22"
"47.80000","3.98316","3903.57"
"47.90000","3.99183","3899.45"
"48.00000","4.00040","3894.72"
"48.10000","4.00876","3886.7"
"48.20000","4.01713","3876.3"
"48.30000","4.02519","3862.1"
"48.40000","4.03316","3838.76"
"48.50000","4.04162","3800.69"
"48.57600","4.04828","3422.55"
"48.58000","4.04868","3075.7"
"48.58400","4.04908","2671.55"
"48.58800","4.04959","2241.74"