File: Data_Processing/Tensile-Data/Sequence_51.csv
General : Start date,"11/5/2024 8:35 AM"
General : End date,"11/5/2024 8:35 AM"
Specimen notes : Specimen note 1,"Day 3, purple, 230, batch 17, seq 51"
Test : Rate 1,"5.00000",mm/min

Time,Extension,Load
(s),(mm),(N)
"0.00000","-0.00010","0.34731"
"0.10000","0.00131","-0.40487"
"0.20000","0.01008","10.96329"
"0.30000","0.02308","36.36908"
"0.40000","0.03175","55.44476"
"0.50000","0.04002","69.36252"
"0.60000","0.04919","86.01320"
"0.70000","0.05826","102.247"
"0.80000","0.06673","117.299"
"0.90000","0.07499","130.075"
"1.00000","0.08336","144.484"
"1.10000","0.09152","159.082"
"1.20000","0.09999","172.387"
"1.30000","0.10845","187.716"
"1.40000","0.11692","200.076"
"1.50000","0.12519","214.708"
"1.60000","0.13355","228.013"
"1.70000","0.14192","242.744"
"1.80000","0.14998","255.26"
"1.90000","0.15825","268.319"
"2.00000","0.16671","282.821"
"2.10000","0.17518","297.331"
"2.20000","0.18355","311.837"
"2.30000","0.19191","325.093"
"2.40000","0.20008","337.838"
"2.50000","0.20814","352.287"
"2.60000","0.21640","365.156"
"2.70000","0.22497","380.536"
"2.80000","0.23354","393.92"
"2.90000","0.24201","408.84"
"3.00000","0.24997","420.96"
"3.10000","0.25803","435.859"
"3.20000","0.26640","447.72"
"3.30000","0.27507","461.629"
"3.40000","0.28353","475.509"
"3.50000","0.29170","488.905"
"3.60000","0.29986","501.487"
"3.70000","0.30823","515.876"
"3.80000","0.31669","529.462"
"3.90000","0.32496","542.015"
"4.00000","0.33332","554.4"
"4.10000","0.34189","567.897"
"4.20000","0.35036","581.171"
"4.30000","0.35862","594.967"
"4.40000","0.36699","606.987"
"4.50000","0.37505","619.684"
"4.60000","0.38342","631.444"
"4.70000","0.39178","644.246"
"4.80000","0.40015","656.726"
"4.90000","0.40852","669.56"
"5.00000","0.41698","682.366"
"5.10000","0.42515","694.607"
"5.20000","0.43321","705.849"
"5.30000","0.44138","717.265"
"5.40000","0.45004","730.395"
"5.50000","0.45851","741.437"
"5.60000","0.46688","753.198"
"5.70000","0.47524","764.136"
"5.80000","0.48341","776.585"
"5.90000","0.49147","786.618"
"6.00000","0.49973","798.826"
"6.10000","0.50850","810.986"
"6.20000","0.51687","823.224"
"6.30000","0.52473","834.047"
"6.40000","0.53320","845.294"
"6.50000","0.54177","857.043"
"6.60000","0.55003","868.312"
"6.70000","0.55820","878.736"
"6.80000","0.56666","891.531"
"6.90000","0.57543","902.307"
"7.00000","0.58370","914.822"
"7.10000","0.59186","923.844"
"7.20000","0.60002","935.64"
"7.30000","0.60819","946.08"
"7.40000","0.61645","957.032"
"7.50000","0.62502","968.602"
"7.60000","0.63359","979.984"
"7.70000","0.64195","990.007"
"7.80000","0.65002","1000.7"
"7.90000","0.65808","1010.37"
"8.00000","0.66635","1020.86"
"8.10000","0.67491","1030.97"
"8.20000","0.68348","1043.45"
"8.30000","0.69185","1052.79"
"8.40000","0.70001","1064.13"
"8.50000","0.70808","1073.14"
"8.60000","0.71614","1083.23"
"8.70000","0.72471","1093.1"
"8.80000","0.73327","1103.75"
"8.90000","0.74164","1115.4"
"9.00000","0.75021","1125.51"
"9.10000","0.75857","1136.5"
"9.20000","0.76684","1145.83"
"9.30000","0.77490","1156.54"
"9.40000","0.78317","1165.68"
"9.50000","0.79173","1176.81"
"9.60000","0.80020","1185.94"
"9.70000","0.80877","1196.87"
"9.80000","0.81713","1205.13"
"9.90000","0.82510","1215.28"
"10.00000","0.83306","1223.96"
"10.10000","0.84143","1233.65"
"10.20000","0.84999","1243.32"
"10.30000","0.85836","1253.93"
"10.40000","0.86683","1261.7"
"10.50000","0.87529","1272.13"
"10.60000","0.88325","1280.1"
"10.70000","0.89122","1289.88"
"10.80000","0.89978","1298.54"
"10.90000","0.90855","1308.09"
"11.00000","0.91682","1316.67"
"11.10000","0.92488","1325.94"
"11.20000","0.93335","1334.33"
"11.30000","0.94171","1343.38"
"11.40000","0.94968","1351.77"
"11.50000","0.95814","1360.98"
"11.60000","0.96671","1371.48"
"11.70000","0.97518","1379.71"
"11.80000","0.98344","1388.89"
"11.90000","0.99161","1397.06"
"12.00000","0.99977","1406.65"
"12.10000","1.00794","1415.5"
"12.20000","1.01620","1425.2"
"12.30000","1.02507","1435.19"
"12.40000","1.03394","1444.56"
"12.50000","1.04190","1453.78"
"12.60000","1.04997","1462.53"
"12.70000","1.05833","1471.84"
"12.80000","1.06670","1480.24"
"12.90000","1.07517","1489.06"
"13.00000","1.08373","1499.77"
"13.10000","1.09210","1507.26"
"13.20000","1.10016","1517.32"
"13.30000","1.10823","1524.93"
"13.40000","1.11639","1533.6"
"13.50000","1.12496","1542.8"
"13.60000","1.13353","1552.67"
"13.70000","1.14199","1561.45"
"13.80000","1.15046","1569.84"
"13.90000","1.15862","1578.51"
"14.00000","1.16648","1587.54"
"14.10000","1.17465","1595.15"
"14.20000","1.18312","1603.33"
"14.30000","1.19178","1612.2"
"14.40000","1.20005","1620.33"
"14.50000","1.20862","1628.82"
"14.60000","1.21678","1638.23"
"14.70000","1.22464","1646.3"
"14.80000","1.23291","1654.23"
"14.90000","1.24158","1662.59"
"15.00000","1.25034","1671.46"
"15.10000","1.25861","1679.96"
"15.20000","1.26698","1687.96"
"15.30000","1.27524","1696.7"
"15.40000","1.28320","1703.89"
"15.50000","1.29147","1713.17"
"15.60000","1.30004","1720.79"
"15.70000","1.30860","1729.92"
"15.80000","1.31687","1737.03"
"15.90000","1.32503","1746.58"
"16.00000","1.33340","1754.04"
"16.10000","1.34166","1762.45"
"16.20000","1.34973","1770.71"
"16.30000","1.35819","1779.06"
"16.40000","1.36696","1788.23"
"16.50000","1.37533","1796.3"
"16.60000","1.38349","1803.71"
"16.70000","1.39166","1812.89"
"16.80000","1.39982","1819.94"
"16.90000","1.40809","1828.68"
"17.00000","1.41665","1836.74"
"17.10000","1.42512","1846.79"
"17.20000","1.43359","1854.18"
"17.30000","1.44175","1862.26"
"17.40000","1.44982","1870.22"
"17.50000","1.45818","1878.12"
"17.60000","1.46655","1886.51"
"17.70000","1.47522","1894.52"
"17.80000","1.48368","1903.1"
"17.90000","1.49185","1909.94"
"18.00000","1.50011","1919.58"
"18.10000","1.50807","1926.41"
"18.20000","1.51664","1934.26"
"18.30000","1.52521","1943.2"
"18.40000","1.53347","1950.27"
"18.50000","1.54194","1959.15"
"18.60000","1.55031","1966.69"
"18.70000","1.55847","1975.52"
"18.80000","1.56643","1982.73"
"18.90000","1.57470","1990.11"
"19.00000","1.58296","1998.04"
"19.10000","1.59153","2007.08"
"19.20000","1.60000","2016.12"
"19.30000","1.60836","2023.06"
"19.40000","1.61663","2031.86"
"19.50000","1.62459","2039.27"
"19.60000","1.63306","2049.25"
"19.70000","1.64173","2057.1"
"19.80000","1.65029","2065.45"
"19.90000","1.65846","2073.85"
"20.00000","1.66682","2082.04"
"20.10000","1.67509","2088.96"
"20.20000","1.68305","2097.12"
"20.30000","1.69132","2104.54"
"20.40000","1.70009","2114.3"
"20.50000","1.70845","2121.19"
"20.60000","1.71662","2129.67"
"20.70000","1.72518","2137.26"
"20.80000","1.73335","2145.68"
"20.90000","1.74161","2153.27"
"21.00000","1.74988","2160.66"
"21.10000","1.75834","2169.91"
"21.20000","1.76691","2178.21"
"21.30000","1.77508","2186.5"
"21.40000","1.78314","2193.38"
"21.50000","1.79141","2201.64"
"21.60000","1.79997","2209.53"
"21.70000","1.80824","2219.84"
"21.80000","1.81691","2227.43"
"21.90000","1.82547","2236.34"
"22.00000","1.83364","2244.39"
"22.10000","1.84160","2253.76"
"22.20000","1.84976","2261.65"
"22.30000","1.85833","2270.08"
"22.40000","1.86670","2278.75"
"22.50000","1.87506","2286.38"
"22.60000","1.88353","2294.73"
"22.70000","1.89190","2303.19"
"22.80000","1.89996","2310.65"
"22.90000","1.90802","2318.49"
"23.00000","1.91649","2326.18"
"23.10000","1.92496","2335.4"
"23.20000","1.93342","2344.09"
"23.30000","1.94179","2351.72"
"23.40000","1.95026","2359.7"
"23.50000","1.95842","2367.79"
"23.60000","1.96628","2374.7"
"23.70000","1.97475","2383.59"
"23.80000","1.98352","2392.48"
"23.90000","1.99198","2400.16"
"24.00000","2.00035","2408.36"
"24.10000","2.00872","2416.09"
"24.20000","2.01658","2422.61"
"24.30000","2.02474","2432.15"
"24.40000","2.03311","2440.03"
"24.50000","2.04198","2449.92"
"24.60000","2.05024","2457.24"
"24.70000","2.05841","2465"
"24.80000","2.06657","2473.35"
"24.90000","2.07484","2481.53"
"25.00000","2.08290","2489.34"
"25.10000","2.09157","2498.58"
"25.20000","2.10024","2506.93"
"25.30000","2.10830","2515.49"
"25.40000","2.11667","2524.11"
"25.50000","2.12513","2532.85"
"25.60000","2.13330","2541.87"
"25.70000","2.14146","2548.06"
"25.80000","2.14993","2556.92"
"25.90000","2.15870","2565.16"
"26.00000","2.16706","2572.35"
"26.10000","2.17533","2581.01"
"26.20000","2.18349","2589.09"
"26.30000","2.19156","2596.15"
"26.40000","2.19982","2605.89"
"26.50000","2.20829","2613.54"
"26.60000","2.21716","2624.01"
"26.70000","2.22562","2632.35"
"26.80000","2.23359","2640.99"
"26.90000","2.24155","2649.31"
"27.00000","2.24992","2657.81"
"27.10000","2.25828","2667.13"
"27.20000","2.26675","2675.43"
"27.30000","2.27521","2683.64"
"27.40000","2.28348","2691.58"
"27.50000","2.29164","2700.6"
"27.60000","2.29961","2708.79"
"27.70000","2.30797","2716.91"
"27.80000","2.31674","2724.79"
"27.90000","2.32511","2735.13"
"28.00000","2.33337","2742.66"
"28.10000","2.34194","2751.76"
"28.20000","2.35021","2759.11"
"28.30000","2.35827","2766.64"
"28.40000","2.36643","2775.28"
"28.50000","2.37490","2783.67"
"28.60000","2.38357","2793.48"
"28.70000","2.39203","2801.34"
"28.80000","2.40030","2808.79"
"28.90000","2.40846","2817.71"
"29.00000","2.41643","2825.3"
"29.10000","2.42469","2833.77"
"29.20000","2.43346","2842.43"
"29.30000","2.44223","2851.34"
"29.40000","2.45049","2860.13"
"29.50000","2.45846","2867.45"
"29.60000","2.46672","2877.32"
"29.70000","2.47479","2884.05"
"29.80000","2.48305","2892.83"
"29.90000","2.49162","2900.7"
"30.00000","2.49998","2909.58"
"30.10000","2.50805","2917.23"
"30.20000","2.51641","2925.09"
"30.30000","2.52498","2933.81"
"30.40000","2.53315","2942.1"
"30.50000","2.54121","2949.39"
"30.60000","2.54978","2958.21"
"30.70000","2.55855","2966.14"
"30.80000","2.56671","2975.47"
"30.90000","2.57508","2982.34"
"31.00000","2.58334","2991.47"
"31.10000","2.59151","2998.72"
"31.20000","2.59987","3007.08"
"31.30000","2.60854","3015.75"
"31.40000","2.61711","3024.1"
"31.50000","2.62527","3032.13"
"31.60000","2.63333","3040.07"
"31.70000","2.64150","3047.42"
"31.80000","2.64997","3054.69"
"31.90000","2.65833","3064.04"
"32.00000","2.66690","3072.52"
"32.10000","2.67526","3080.79"
"32.20000","2.68363","3089.7"
"32.30000","2.69179","3096.75"
"32.40000","2.69976","3105.15"
"32.50000","2.70802","3112.6"
"32.60000","2.71659","3121"
"32.70000","2.72516","3130.28"
"32.80000","2.73372","3138.23"
"32.90000","2.74209","3146.86"
"33.00000","2.75026","3154.71"
"33.10000","2.75822","3162.66"
"33.20000","2.76638","3169.84"
"33.30000","2.77495","3178.53"
"33.40000","2.78342","3185.37"
"33.50000","2.79188","3193.98"
"33.60000","2.80025","3200.71"
"33.70000","2.80831","3209.85"
"33.80000","2.81627","3216.98"
"33.90000","2.82474","3225.83"
"34.00000","2.83351","3233.6"
"34.10000","2.84198","3241.49"
"34.20000","2.85004","3249.9"
"34.30000","2.85841","3257.18"
"34.40000","2.86667","3265.38"
"34.50000","2.87484","3273.85"
"34.60000","2.88320","3280.73"
"34.70000","2.89177","3289.37"
"34.80000","2.90014","3296.21"
"34.90000","2.90860","3304.7"
"35.00000","2.91697","3312.79"
"35.10000","2.92523","3319.41"
"35.20000","2.93320","3327.02"
"35.30000","2.94136","3334.14"
"35.40000","2.95013","3342.81"
"35.50000","2.95880","3350.24"
"35.60000","2.96686","3358.27"
"35.70000","2.97502","3363.86"
"35.80000","2.98309","3372.16"
"35.90000","2.99115","3378.71"
"36.00000","2.99972","3385.97"
"36.10000","3.00829","3393.58"
"36.20000","3.01695","3401.24"
"36.30000","3.02532","3408.3"
"36.40000","3.03328","3414.24"
"36.50000","3.04155","3420.61"
"36.60000","3.05002","3428.4"
"36.70000","3.05848","3435.06"
"36.80000","3.06685","3441.89"
"36.90000","3.07521","3447.83"
"37.00000","3.08348","3454.88"
"37.10000","3.09154","3461.57"
"37.20000","3.09971","3467.49"
"37.30000","3.10817","3474.03"
"37.40000","3.11684","3480.69"
"37.50000","3.12541","3487.18"
"37.60000","3.13367","3491.88"
"37.70000","3.14194","3498.67"
"37.80000","3.14990","3502.84"
"37.90000","3.15797","3508.37"
"38.00000","3.16633","3513.18"
"38.10000","3.17510","3518.52"
"38.20000","3.18367","3522.92"
"38.30000","3.19213","3526.11"
"38.40000","3.20010","3529.03"
"38.50000","3.20806","3531.41"
"38.60000","3.21622","3532.4"
"38.70000","3.22499","3533.04"
"38.80000","3.23366","3527.45"
"38.90000","3.24203","3506.34"
"38.91400","3.24314","3236.86"
"38.91800","3.24354","2916.92"
"38.92200","3.24384","2537.7"
"38.92600","3.24435","2135.79"
"38.92800","3.24455","1938.4"