File: Data_Processing/Tensile-Data/Sequence_44.csv
General : Start date,"10/29/2024 10:52 AM"
General : End date,"10/29/2024 10:53 AM"
Specimen notes : Specimen note 1,"Day 2, red, 230, batch 5, seq 44"
Test : Rate 1,"5.00000",mm/min

Time,Extension,Load
(s),(mm),(N)
"0.00000","0.00000","0.39360"
"0.10000","0.00141","0.21339"
"0.20000","0.01119","13.76915"
"0.30000","0.02389","38.72441"
"0.40000","0.03256","56.15548"
"0.50000","0.04062","69.56473"
"0.60000","0.04949","83.28189"
"0.70000","0.05826","98.22370"
"0.80000","0.06683","112.09"
"0.90000","0.07509","125.414"
"1.00000","0.08346","140.362"
"1.10000","0.09162","153.258"
"1.20000","0.09999","167.945"
"1.30000","0.10845","181.411"
"1.40000","0.11702","195.359"
"1.50000","0.12559","209.435"
"1.60000","0.13375","222.743"
"1.70000","0.14202","236.94"
"1.80000","0.15028","250.406"
"1.90000","0.15845","262.95"
"2.00000","0.16671","276.468"
"2.10000","0.17528","290.547"
"2.20000","0.18385","303.446"
"2.30000","0.19211","316.5"
"2.40000","0.20018","329.702"
"2.50000","0.20834","342.308"
"2.60000","0.21661","355.881"
"2.70000","0.22517","369.561"
"2.80000","0.23374","383.711"
"2.90000","0.24211","395.886"
"3.00000","0.25057","408.68"
"3.10000","0.25874","421.722"
"3.20000","0.26660","434.285"
"3.30000","0.27497","445.48"
"3.40000","0.28353","459.07"
"3.50000","0.29180","471.555"
"3.60000","0.30016","483.767"
"3.70000","0.30863","495.73"
"3.80000","0.31669","508.253"
"3.90000","0.32496","519.645"
"4.00000","0.33332","531.808"
"4.10000","0.34189","544.451"
"4.20000","0.35026","557.119"
"4.30000","0.35842","568.37"
"4.40000","0.36689","578.774"
"4.50000","0.37525","590.21"
"4.60000","0.38332","602.268"
"4.70000","0.39168","612.471"
"4.80000","0.40055","624.943"
"4.90000","0.40892","634.875"
"5.00000","0.41729","645.907"
"5.10000","0.42545","656.904"
"5.20000","0.43361","667.033"
"5.30000","0.44168","676.14"
"5.40000","0.44994","685.817"
"5.50000","0.45871","697.241"
"5.60000","0.46708","707.688"
"5.70000","0.47554","717.812"
"5.80000","0.48361","727.422"
"5.90000","0.49167","736.157"
"6.00000","0.49984","746.35"
"6.10000","0.50830","756.797"
"6.20000","0.51687","767.865"
"6.30000","0.52534","777.102"
"6.40000","0.53370","785.843"
"6.50000","0.54177","795.463"
"6.60000","0.55003","804.581"
"6.70000","0.55820","813.836"
"6.80000","0.56676","824.284"
"6.90000","0.57523","833.918"
"7.00000","0.58370","843.773"
"7.10000","0.59196","852.648"
"7.20000","0.60023","862.509"
"7.30000","0.60839","871.695"
"7.40000","0.61666","880.362"
"7.50000","0.62512","890.391"
"7.60000","0.63369","900.332"
"7.70000","0.64216","909.55"
"7.80000","0.65042","918.358"
"7.90000","0.65848","926.839"
"8.00000","0.66655","934.175"
"8.10000","0.67501","942.217"
"8.20000","0.68368","951.668"
"8.30000","0.69175","959.319"
"8.40000","0.70031","966.88"
"8.50000","0.70878","975.143"
"8.60000","0.71674","983.047"
"8.70000","0.72481","991.081"
"8.80000","0.73317","999.155"
"8.90000","0.74194","1007.85"
"9.00000","0.75031","1015.78"
"9.10000","0.75847","1022.49"
"9.20000","0.76684","1031.94"
"9.30000","0.77470","1039.38"
"9.40000","0.78286","1046.5"
"9.50000","0.79153","1055.31"
"9.60000","0.80040","1062.51"
"9.70000","0.80867","1071.55"
"9.80000","0.81653","1078.25"
"9.90000","0.82520","1085.82"
"10.00000","0.83366","1094.1"
"10.10000","0.84173","1101.54"
"10.20000","0.85019","1109.5"
"10.30000","0.85896","1118.37"
"10.40000","0.86723","1125.44"
"10.50000","0.87559","1133.2"
"10.60000","0.88356","1140.93"
"10.70000","0.89162","1147.57"
"10.80000","0.89999","1155.06"
"10.90000","0.90855","1162.72"
"11.00000","0.91692","1170.61"
"11.10000","0.92559","1178.84"
"11.20000","0.93385","1185.74"
"11.30000","0.94182","1192.85"
"11.40000","0.94988","1200.93"
"11.50000","0.95814","1208.16"
"11.60000","0.96681","1215.84"
"11.70000","0.97538","1223.57"
"11.80000","0.98375","1230.56"
"11.90000","0.99181","1237.33"
"12.00000","0.99987","1244.6"
"12.10000","1.00824","1250.98"
"12.20000","1.01660","1257.93"
"12.30000","1.02537","1265.71"
"12.40000","1.03374","1273.05"
"12.50000","1.04200","1278.95"
"12.60000","1.05017","1286.42"
"12.70000","1.05833","1293.6"
"12.80000","1.06660","1299.81"
"12.90000","1.07506","1308.12"
"13.00000","1.08343","1315.45"
"13.10000","1.09200","1323.43"
"13.20000","1.10057","1331.57"
"13.30000","1.10873","1337.34"
"13.40000","1.11669","1345.06"
"13.50000","1.12496","1351.95"
"13.60000","1.13363","1360.08"
"13.70000","1.14219","1367.63"
"13.80000","1.15036","1373.94"
"13.90000","1.15862","1382.23"
"14.00000","1.16689","1390.23"
"14.10000","1.17485","1397.5"
"14.20000","1.18312","1404.53"
"14.30000","1.19188","1413.18"
"14.40000","1.20065","1419.82"
"14.50000","1.20862","1426.96"
"14.60000","1.21678","1434.9"
"14.70000","1.22505","1442.56"
"14.80000","1.23321","1449.23"
"14.90000","1.24148","1455.99"
"15.00000","1.25014","1463.72"
"15.10000","1.25861","1471.27"
"15.20000","1.26677","1479.33"
"15.30000","1.27514","1486.19"
"15.40000","1.28330","1493.41"
"15.50000","1.29177","1500.62"
"15.60000","1.30004","1508.55"
"15.70000","1.30850","1516.65"
"15.80000","1.31707","1523.16"
"15.90000","1.32544","1531.34"
"16.00000","1.33380","1538.33"
"16.10000","1.34176","1545.77"
"16.20000","1.34983","1552.85"
"16.30000","1.35819","1561.45"
"16.40000","1.36706","1569.47"
"16.50000","1.37563","1576.34"
"16.60000","1.38380","1584.08"
"16.70000","1.39186","1591.74"
"16.80000","1.39992","1598.75"
"16.90000","1.40829","1606.96"
"17.00000","1.41676","1614.45"
"17.10000","1.42532","1622.35"
"17.20000","1.43369","1630.08"
"17.30000","1.44205","1637.59"
"17.40000","1.45002","1645.57"
"17.50000","1.45818","1652.35"
"17.60000","1.46665","1659.31"
"17.70000","1.47522","1668.02"
"17.80000","1.48338","1675.24"
"17.90000","1.49185","1682.96"
"18.00000","1.50062","1690.6"
"18.10000","1.50868","1697.26"
"18.20000","1.51644","1704.7"
"18.30000","1.52481","1712.21"
"18.40000","1.53358","1720.81"
"18.50000","1.54204","1728.75"
"18.60000","1.55041","1735.71"
"18.70000","1.55857","1742.87"
"18.80000","1.56694","1751.06"
"18.90000","1.57500","1758.44"
"19.00000","1.58327","1765.66"
"19.10000","1.59204","1773.76"
"19.20000","1.60060","1781.63"
"19.30000","1.60877","1788.79"
"19.40000","1.61683","1795.71"
"19.50000","1.62520","1803.01"
"19.60000","1.63336","1811.1"
"19.70000","1.64173","1818.01"
"19.80000","1.65019","1827.06"
"19.90000","1.65866","1834.69"
"20.00000","1.66703","1841.99"
"20.10000","1.67519","1849.53"
"20.20000","1.68325","1856.06"
"20.30000","1.69142","1864.01"
"20.40000","1.69978","1872.83"
"20.50000","1.70845","1880.68"
"20.60000","1.71702","1888.36"
"20.70000","1.72539","1894.88"
"20.80000","1.73355","1903.25"
"20.90000","1.74151","1910.76"
"21.00000","1.74988","1917.99"
"21.10000","1.75885","1927.09"
"21.20000","1.76732","1934.98"
"21.30000","1.77548","1941.59"
"21.40000","1.78374","1949.81"
"21.50000","1.79181","1957.32"
"21.60000","1.80007","1964.21"
"21.70000","1.80834","1971.9"
"21.80000","1.81691","1979.54"
"21.90000","1.82547","1987.95"
"22.00000","1.83394","1995.18"
"22.10000","1.84210","2002.97"
"22.20000","1.85017","2010.39"
"22.30000","1.85833","2018.44"
"22.40000","1.86670","2026.37"
"22.50000","1.87496","2033.82"
"22.60000","1.88343","2041.27"
"22.70000","1.89220","2049.43"
"22.80000","1.90046","2057.18"
"22.90000","1.90833","2065.54"
"23.00000","1.91639","2073.12"
"23.10000","1.92496","2080.41"
"23.20000","1.93373","2088.56"
"23.30000","1.94199","2096.04"
"23.40000","1.95036","2104.39"
"23.50000","1.95862","2112.33"
"23.60000","1.96638","2119.8"
"23.70000","1.97475","2127.14"
"23.80000","1.98342","2134.14"
"23.90000","1.99209","2141.73"
"24.00000","2.00035","2150.39"
"24.10000","2.00851","2157.78"
"24.20000","2.01698","2166.14"
"24.30000","2.02515","2173.83"
"24.40000","2.03351","2181.84"
"24.50000","2.04208","2190.2"
"24.60000","2.05065","2197.54"
"24.70000","2.05891","2205.9"
"24.80000","2.06708","2214.08"
"24.90000","2.07494","2220.74"
"25.00000","2.08320","2228.51"
"25.10000","2.09157","2236.61"
"25.20000","2.10024","2244.1"
"25.30000","2.10860","2251.82"
"25.40000","2.11707","2260.6"
"25.50000","2.12533","2268.12"
"25.60000","2.13330","2276.74"
"25.70000","2.14136","2282.92"
"25.80000","2.14983","2291.06"
"25.90000","2.15850","2300"
"26.00000","2.16696","2307.92"
"26.10000","2.17533","2315.73"
"26.20000","2.18339","2322.98"
"26.30000","2.19166","2330.96"
"26.40000","2.20002","2338.36"
"26.50000","2.20849","2345.98"
"26.60000","2.21716","2354.89"
"26.70000","2.22532","2361.94"
"26.80000","2.23379","2370.4"
"26.90000","2.24195","2378.07"
"27.00000","2.25002","2385.67"
"27.10000","2.25848","2394.18"
"27.20000","2.26685","2401.42"
"27.30000","2.27521","2410.74"
"27.40000","2.28348","2417.78"
"27.50000","2.29215","2425.57"
"27.60000","2.30041","2434.65"
"27.70000","2.30827","2441.48"
"27.80000","2.31654","2449.5"
"27.90000","2.32511","2458.23"
"28.00000","2.33368","2465.86"
"28.10000","2.34184","2474.57"
"28.20000","2.35021","2482.42"
"28.30000","2.35847","2489.68"
"28.40000","2.36653","2497.85"
"28.50000","2.37500","2505.65"
"28.60000","2.38357","2513.34"
"28.70000","2.39224","2521.26"
"28.80000","2.40030","2528.98"
"28.90000","2.40846","2536.7"
"29.00000","2.41683","2543.92"
"29.10000","2.42509","2551.88"
"29.20000","2.43346","2560.35"
"29.30000","2.44183","2566.84"
"29.40000","2.45029","2575.12"
"29.50000","2.45876","2583.04"
"29.60000","2.46703","2591.04"
"29.70000","2.47509","2599.02"
"29.80000","2.48335","2606.49"
"29.90000","2.49162","2615.29"
"30.00000","2.50019","2623.08"
"30.10000","2.50865","2630.69"
"30.20000","2.51702","2639.01"
"30.30000","2.52518","2646.51"
"30.40000","2.53335","2654.67"
"30.50000","2.54141","2662.35"
"30.60000","2.55008","2670.85"
"30.70000","2.55865","2678.84"
"30.80000","2.56701","2687.56"
"30.90000","2.57538","2695.09"
"31.00000","2.58344","2702.46"
"31.10000","2.59161","2710.34"
"31.20000","2.59997","2718.29"
"31.30000","2.60844","2726.51"
"31.40000","2.61691","2734.56"
"31.50000","2.62517","2742.37"
"31.60000","2.63364","2751.23"
"31.70000","2.64200","2757.96"
"31.80000","2.65007","2765.74"
"31.90000","2.65843","2773.27"
"32.00000","2.66680","2782.16"
"32.10000","2.67526","2790.34"
"32.20000","2.68393","2798.43"
"32.30000","2.69240","2806.02"
"32.40000","2.70036","2813.31"
"32.50000","2.70832","2821.04"
"32.60000","2.71669","2828.85"
"32.70000","2.72556","2836.71"
"32.80000","2.73383","2845.47"
"32.90000","2.74199","2852.97"
"33.00000","2.75036","2860.87"
"33.10000","2.75852","2868.77"
"33.20000","2.76658","2876"
"33.30000","2.77495","2884.3"
"33.40000","2.78372","2892.08"
"33.50000","2.79219","2900.95"
"33.60000","2.80005","2908.8"
"33.70000","2.80821","2914.79"
"33.80000","2.81658","2924.03"
"33.90000","2.82474","2931.08"
"34.00000","2.83311","2939.05"
"34.10000","2.84178","2946.1"
"34.20000","2.85024","2954.19"
"34.30000","2.85871","2961.68"
"34.40000","2.86687","2969.45"
"34.50000","2.87504","2976.53"
"34.60000","2.88330","2985.83"
"34.70000","2.89167","2993.69"
"34.80000","2.90044","3001.85"
"34.90000","2.90890","3009.09"
"35.00000","2.91707","3016.8"
"35.10000","2.92513","3024.89"
"35.20000","2.93320","3031.4"
"35.30000","2.94166","3040.26"
"35.40000","2.95043","3047.8"
"35.50000","2.95900","3056.29"
"35.60000","2.96726","3063.89"
"35.70000","2.97533","3072.11"
"35.80000","2.98329","3080.19"
"35.90000","2.99166","3087.47"
"36.00000","3.00012","3093.96"
"36.10000","3.00859","3103.1"
"36.20000","3.01695","3110.68"
"36.30000","3.02542","3118.15"
"36.40000","3.03369","3126.5"
"36.50000","3.04165","3133.66"
"36.60000","3.04971","3140.92"
"36.70000","3.05838","3148.76"
"36.80000","3.06655","3156.31"
"36.90000","3.07481","3164.13"
"37.00000","3.08348","3172.17"
"37.10000","3.09184","3179.92"
"37.20000","3.09991","3187.39"
"37.30000","3.10797","3194.82"
"37.40000","3.11684","3202.46"
"37.50000","3.12541","3211.66"
"37.60000","3.13367","3218.68"
"37.70000","3.14194","3225.69"
"37.80000","3.15031","3232.82"
"37.90000","3.15837","3240.15"
"38.00000","3.16653","3247.78"
"38.10000","3.17530","3255.86"
"38.20000","3.18407","3263.44"
"38.30000","3.19203","3270.75"
"38.40000","3.20000","3278.95"
"38.50000","3.20846","3286.15"
"38.60000","3.21693","3295.25"
"38.70000","3.22540","3301.91"
"38.80000","3.23376","3310.11"
"38.90000","3.24213","3317.69"
"39.00000","3.25039","3325.17"
"39.10000","3.25846","3332.18"
"39.20000","3.26662","3340.11"
"39.30000","3.27499","3346.99"
"39.40000","3.28325","3354.57"
"39.50000","3.29172","3362.87"
"39.60000","3.30049","3370.24"
"39.70000","3.30885","3377.93"
"39.80000","3.31702","3385.89"
"39.90000","3.32498","3392.2"
"40.00000","3.33314","3399.3"
"40.10000","3.34161","3407.87"
"40.20000","3.35028","3414.71"
"40.30000","3.35875","3422.52"
"40.40000","3.36691","3429.94"
"40.50000","3.37507","3437.82"
"40.60000","3.38334","3445.14"
"40.70000","3.39171","3452.59"
"40.80000","3.40007","3460.24"
"40.90000","3.40874","3467.94"
"41.00000","3.41711","3475.42"
"41.10000","3.42537","3483.33"
"41.20000","3.43364","3491.13"
"41.30000","3.44170","3496.88"
"41.40000","3.44996","3504.77"
"41.50000","3.45833","3512.28"
"41.60000","3.46670","3519.05"
"41.70000","3.47536","3526.74"
"41.80000","3.48383","3535.38"
"41.90000","3.49210","3542.37"
"42.00000","3.49996","3548.07"
"42.10000","3.50822","3555.61"
"42.20000","3.51689","3563.23"
"42.30000","3.52526","3571.46"
"42.40000","3.53352","3578.52"
"42.50000","3.54199","3584.97"
"42.60000","3.55005","3592.22"
"42.70000","3.55802","3598.68"
"42.80000","3.56648","3605.96"
"42.90000","3.57535","3614.36"
"43.00000","3.58382","3621.14"
"43.10000","3.59198","3628.8"
"43.20000","3.60015","3635.18"
"43.30000","3.60861","3642.21"
"43.40000","3.61678","3649.23"
"43.50000","3.62494","3655.64"
"43.60000","3.63361","3663.63"
"43.70000","3.64198","3670.22"
"43.80000","3.65044","3677.76"
"43.90000","3.65871","3684.27"
"44.00000","3.66657","3691.28"
"44.10000","3.67484","3697.77"
"44.20000","3.68350","3705.37"
"44.30000","3.69207","3712.05"
"44.40000","3.70044","3718.84"
"44.50000","3.70880","3725.18"
"44.60000","3.71687","3732.28"
"44.70000","3.72493","3738.64"
"44.80000","3.73309","3745.66"
"44.90000","3.74196","3752.54"
"45.00000","3.75043","3759.41"
"45.10000","3.75880","3766.64"
"45.20000","3.76706","3773.25"
"45.30000","3.77523","3779.71"
"45.40000","3.78339","3786.01"
"45.50000","3.79166","3792.52"
"45.60000","3.80022","3798.42"
"45.70000","3.80869","3805.77"
"45.80000","3.81685","3811.44"
"45.90000","3.82542","3818.8"
"46.00000","3.83348","3825.46"
"46.10000","3.84155","3831.51"
"46.20000","3.84991","3836.98"
"46.30000","3.85848","3845.15"
"46.40000","3.86695","3850.63"
"46.50000","3.87552","3857.08"
"46.60000","3.88398","3862.85"
"46.70000","3.89194","3868.08"
"46.80000","3.89991","3874.32"
"46.90000","3.90827","3881"
"47.00000","3.91694","3886.86"
"47.10000","3.92531","3892.56"
"47.20000","3.93357","3897.95"
"47.30000","3.94174","3903.86"
"47.40000","3.95000","3909.79"
"47.50000","3.95807","3914.79"
"47.60000","3.96673","3921.49"
"47.70000","3.97540","3927.22"
"47.80000","3.98377","3932.92"
"47.90000","3.99183","3937.71"
"48.00000","3.99999","3942.8"
"48.10000","4.00836","3949.33"
"48.20000","4.01663","3954.29"
"48.30000","4.02519","3959.09"
"48.40000","4.03376","3965.21"
"48.50000","4.04213","3970.48"
"48.60000","4.05039","3974.83"
"48.70000","4.05835","3979.35"
"48.80000","4.06672","3984.95"
"48.90000","4.07509","3990.25"
"49.00000","4.08345","3994.55"
"49.10000","4.09192","3999.18"
"49.20000","4.10039","4004.26"
"49.30000","4.10875","4008.46"
"49.40000","4.11692","4013.5"
"49.50000","4.12488","4016.79"
"49.60000","4.13324","4021.24"
"49.70000","4.14201","4025.67"
"49.80000","4.15078","4028.84"
"49.90000","4.15885","4033.14"
"50.00000","4.16681","4036.34"
"50.10000","4.17487","4039.55"
"50.20000","4.18324","4043.02"
"50.30000","4.19170","4046.17"
"50.40000","4.20027","4050.2"
"50.50000","4.20874","4052.74"
"50.60000","4.21700","4055.63"
"50.70000","4.22527","4058.13"
"50.80000","4.23333","4060.12"
"50.90000","4.24160","4062.18"
"51.00000","4.25006","4064.24"
"51.10000","4.25833","4065.7"
"51.20000","4.26690","4067.46"
"51.30000","4.27546","4069.69"
"51.40000","4.28393","4070.6"
"51.50000","4.29189","4070.85"
"51.60000","4.30006","4071"
"51.70000","4.30852","4071.68"
"51.80000","4.31719","4071.72"
"51.90000","4.32546","4071.21"
"52.00000","4.33372","4069.83"
"52.10000","4.34199","4067.65"
"52.20000","4.35015","4066.14"
"52.30000","4.35832","4062.93"
"52.40000","4.36678","4059.67"
"52.50000","4.37525","4056.68"
"52.60000","4.38341","4051.44"
"52.70000","4.39158","4046.52"
"52.80000","4.39994","4040.94"
"52.90000","4.40831","4034.44"
"53.00000","4.41657","4025.91"
"53.10000","4.42514","4017.42"
"53.20000","4.43351","4006.69"
"53.30000","4.44208","3995.46"
"53.40000","4.45034","3980.65"
"53.50000","4.45851","3962.73"
"53.60000","4.46687","3941.27"
"53.70000","4.47494","3913.72"
"53.80000","4.48360","3875.93"
"53.90000","4.49217","3813.94"
"53.96400","4.49771","3484.66"
"53.96800","4.49812","3145.62"
"53.97200","4.49852","2749.9"
"53.97600","4.49892","2319.81"
"53.97800","4.49913","2107.02"