File: Data_Processing/Tensile-Data/Sequence_35.csv
General : Start date,"10/29/2024 10:33 AM"
General : End date,"10/29/2024 10:33 AM"
Specimen notes : Specimen note 1,"Day 2, purple, 215, batch 12, seq 35"
Test : Rate 1,"5.00000",mm/min

Time,Extension,Load
(s),(mm),(N)
"0.00000","0.00010","0.12741"
"0.10000","0.00181","0.52936"
"0.20000","0.01351","16.81806"
"0.30000","0.02590","43.53938"
"0.40000","0.03407","58.29472"
"0.50000","0.04304","73.78030"
"0.60000","0.05221","89.46882"
"0.70000","0.06058","103.554"
"0.80000","0.06864","116.582"
"0.90000","0.07680","129.36"
"1.00000","0.08547","143.342"
"1.10000","0.09394","157.255"
"1.20000","0.10231","170.883"
"1.30000","0.11077","184.829"
"1.40000","0.11894","198.964"
"1.50000","0.12700","211.562"
"1.60000","0.13527","226.112"
"1.70000","0.14373","239.226"
"1.80000","0.15230","252.814"
"1.90000","0.16077","267.036"
"2.00000","0.16893","280.556"
"2.10000","0.17740","293.733"
"2.20000","0.18556","308.139"
"2.30000","0.19373","322.743"
"2.40000","0.20229","336.182"
"2.50000","0.21086","350.323"
"2.60000","0.21933","363.934"
"2.70000","0.22749","377.431"
"2.80000","0.23576","390.992"
"2.90000","0.24372","402.504"
"3.00000","0.25198","416.325"
"3.10000","0.26055","429.525"
"3.20000","0.26912","443.555"
"3.30000","0.27748","457.635"
"3.40000","0.28555","470.046"
"3.50000","0.29371","482.77"
"3.60000","0.30198","496.367"
"3.70000","0.31024","509.417"
"3.80000","0.31881","522.353"
"3.90000","0.32738","535.966"
"4.00000","0.33564","549.265"
"4.10000","0.34381","562.366"
"4.20000","0.35197","574.689"
"4.30000","0.36034","587.767"
"4.40000","0.36860","600.701"
"4.50000","0.37717","612.927"
"4.60000","0.38574","626.936"
"4.70000","0.39390","639.284"
"4.80000","0.40207","651.854"
"4.90000","0.41043","665.399"
"5.00000","0.41880","677.586"
"5.10000","0.42716","690.66"
"5.20000","0.43573","703.537"
"5.30000","0.44420","716.823"
"5.40000","0.45266","729.998"
"5.50000","0.46073","742.757"
"5.60000","0.46869","755.106"
"5.70000","0.47706","767.077"
"5.80000","0.48552","780.136"
"5.90000","0.49379","793.173"
"6.00000","0.50215","806.188"
"6.10000","0.51062","818.484"
"6.20000","0.51889","831.721"
"6.30000","0.52695","842.981"
"6.40000","0.53521","854.13"
"6.50000","0.54378","867.012"
"6.60000","0.55225","879.253"
"6.70000","0.56051","891.374"
"6.80000","0.56898","903.186"
"6.90000","0.57704","914.541"
"7.00000","0.58501","926.692"
"7.10000","0.59337","937.565"
"7.20000","0.60224","951.28"
"7.30000","0.61071","963.908"
"7.40000","0.61867","975.775"
"7.50000","0.62704","986.947"
"7.60000","0.63571","999.128"
"7.70000","0.64397","1011.59"
"7.80000","0.65213","1022.82"
"7.90000","0.66070","1034.35"
"8.00000","0.66917","1046.6"
"8.10000","0.67743","1057.93"
"8.20000","0.68580","1068.88"
"8.30000","0.69366","1080.14"
"8.40000","0.70193","1090.97"
"8.50000","0.71039","1102.51"
"8.60000","0.71906","1113.93"
"8.70000","0.72743","1125.95"
"8.80000","0.73579","1136.71"
"8.90000","0.74396","1148.11"
"9.00000","0.75212","1158.67"
"9.10000","0.76019","1170.03"
"9.20000","0.76855","1181.19"
"9.30000","0.77732","1193.59"
"9.40000","0.78579","1203.47"
"9.50000","0.79405","1214.44"
"9.60000","0.80212","1225.22"
"9.70000","0.81008","1236.07"
"9.80000","0.81855","1247.2"
"9.90000","0.82711","1257.68"
"10.00000","0.83558","1268.86"
"10.10000","0.84405","1278.95"
"10.20000","0.85231","1290.39"
"10.30000","0.86048","1300"
"10.40000","0.86864","1309.92"
"10.50000","0.87701","1320.88"
"10.60000","0.88537","1331.99"
"10.70000","0.89394","1342.12"
"10.80000","0.90261","1352.95"
"10.90000","0.91097","1363.38"
"11.00000","0.91894","1373.3"
"11.10000","0.92690","1382.63"
"11.20000","0.93516","1391.67"
"11.30000","0.94393","1402.64"
"11.40000","0.95240","1413.37"
"11.50000","0.96087","1423.58"
"11.60000","0.96923","1433.48"
"11.70000","0.97699","1442.86"
"11.80000","0.98516","1452.79"
"11.90000","0.99372","1462.77"
"12.00000","1.00239","1473.41"
"12.10000","1.01086","1483.36"
"12.20000","1.01892","1492.82"
"12.30000","1.02709","1502"
"12.40000","1.03515","1512.32"
"12.50000","1.04331","1521.3"
"12.60000","1.05198","1530.17"
"12.70000","1.06055","1540.18"
"12.80000","1.06882","1549.69"
"12.90000","1.07708","1557.84"
"13.00000","1.08535","1565.92"
"13.10000","1.09361","1575.48"
"13.20000","1.10198","1585.04"
"13.30000","1.11044","1594.88"
"13.40000","1.11901","1604.44"
"13.50000","1.12758","1613.73"
"13.60000","1.13584","1622.35"
"13.70000","1.14391","1631.48"
"13.80000","1.15187","1639.68"
"13.90000","1.16013","1648.71"
"14.00000","1.16870","1657.71"
"14.10000","1.17767","1667.19"
"14.20000","1.18594","1676.47"
"14.30000","1.19390","1685.27"
"14.40000","1.20186","1692.95"
"14.50000","1.21013","1701.7"
"14.60000","1.21870","1709.98"
"14.70000","1.22746","1719.24"
"14.80000","1.23583","1728.53"
"14.90000","1.24410","1737.2"
"15.00000","1.25236","1745.2"
"15.10000","1.26022","1753.48"
"15.20000","1.26849","1761.31"
"15.30000","1.27716","1769.81"
"15.40000","1.28542","1778.74"
"15.50000","1.29379","1786.83"
"15.60000","1.30246","1794.92"
"15.70000","1.31082","1802.58"
"15.80000","1.31868","1810.82"
"15.90000","1.32685","1818.45"
"16.00000","1.33531","1825.96"
"16.10000","1.34398","1834.6"
"16.20000","1.35245","1842.35"
"16.30000","1.36081","1849.8"
"16.40000","1.36888","1857.39"
"16.50000","1.37704","1864.78"
"16.60000","1.38521","1872.66"
"16.70000","1.39388","1880.53"
"16.80000","1.40264","1888.75"
"16.90000","1.41081","1896.44"
"17.00000","1.41887","1904.6"
"17.10000","1.42724","1912.36"
"17.20000","1.43550","1921.73"
"17.30000","1.44377","1928.26"
"17.40000","1.45213","1936.33"
"17.50000","1.46070","1944.91"
"17.60000","1.46907","1952.67"
"17.70000","1.47713","1960.22"
"17.80000","1.48529","1968.48"
"17.90000","1.49356","1977.48"
"18.00000","1.50193","1985.67"
"18.10000","1.51039","1995.01"
"18.20000","1.51926","2003.53"
"18.30000","1.52773","2010.92"
"18.40000","1.53579","2018.47"
"18.50000","1.54376","2026.26"
"18.60000","1.55182","2034.03"
"18.70000","1.56039","2042.06"
"18.80000","1.56905","2050.82"
"18.90000","1.57742","2058.33"
"19.00000","1.58569","2066.52"
"19.10000","1.59385","2074.51"
"19.20000","1.60201","2082.51"
"19.30000","1.61028","2089.3"
"19.40000","1.61875","2096.62"
"19.50000","1.62741","2105.29"
"19.60000","1.63578","2114.03"
"19.70000","1.64415","2122.11"
"19.80000","1.65221","2129.41"
"19.90000","1.66047","2137.02"
"20.00000","1.66864","2145.14"
"20.10000","1.67700","2152.63"
"20.20000","1.68537","2161.52"
"20.30000","1.69404","2169.94"
"20.40000","1.70251","2177.86"
"20.50000","1.71057","2185.85"
"20.60000","1.71853","2193.01"
"20.70000","1.72670","2201.35"
"20.80000","1.73546","2209.65"
"20.90000","1.74393","2217.65"
"21.00000","1.75230","2226.14"
"21.10000","1.76086","2234.54"
"21.20000","1.76883","2241.57"
"21.30000","1.77679","2248.42"
"21.40000","1.78536","2258.31"
"21.50000","1.79403","2265.32"
"21.60000","1.80239","2274.34"
"21.70000","1.81056","2281.38"
"21.80000","1.81892","2289.32"
"21.90000","1.82729","2297.9"
"22.00000","1.83545","2304.31"
"22.10000","1.84392","2312.72"
"22.20000","1.85249","2320.76"
"22.30000","1.86085","2328.42"
"22.40000","1.86912","2336.56"
"22.50000","1.87718","2343.97"
"22.60000","1.88534","2351.2"
"22.70000","1.89351","2359.1"
"22.80000","1.90177","2366.53"
"22.90000","1.91054","2374.17"
"23.00000","1.91911","2382.54"
"23.10000","1.92738","2389.93"
"23.20000","1.93554","2398.33"
"23.30000","1.94350","2404.44"
"23.40000","1.95177","2412.56"
"23.50000","1.96023","2420.21"
"23.60000","1.96880","2428.88"
"23.70000","1.97727","2437.7"
"23.80000","1.98563","2445.26"
"23.90000","1.99360","2451.72"
"24.00000","2.00186","2459.78"
"24.10000","2.01033","2467.44"
"24.20000","2.01900","2476.28"
"24.30000","2.02756","2484.4"
"24.40000","2.03603","2492.68"
"24.50000","2.04430","2500.22"
"24.60000","2.05226","2507.25"
"24.70000","2.06032","2514"
"24.80000","2.06889","2521.67"
"24.90000","2.07736","2530"
"25.00000","2.08552","2538.94"
"25.10000","2.09389","2545.41"
"25.20000","2.10256","2553.26"
"25.30000","2.11042","2560.47"
"25.40000","2.11848","2567.93"
"25.50000","2.12685","2575.15"
"25.60000","2.13551","2584.51"
"25.70000","2.14398","2591.09"
"25.80000","2.15235","2598.46"
"25.90000","2.16061","2606.16"
"26.00000","2.16847","2613.45"
"26.10000","2.17664","2620.63"
"26.20000","2.18531","2628.94"
"26.30000","2.19408","2637.08"
"26.40000","2.20254","2645.3"
"26.50000","2.21061","2651.89"
"26.60000","2.21887","2659.39"
"26.70000","2.22714","2667.8"
"26.80000","2.23540","2676.08"
"26.90000","2.24377","2682.73"
"27.00000","2.25244","2691.83"
"27.10000","2.26080","2699.39"
"27.20000","2.26897","2707.4"
"27.30000","2.27713","2714.83"
"27.40000","2.28539","2721.71"
"27.50000","2.29366","2729.81"
"27.60000","2.30213","2737.71"
"27.70000","2.31079","2745.75"
"27.80000","2.31916","2753.87"
"27.90000","2.32743","2761.29"
"28.00000","2.33539","2769.25"
"28.10000","2.34345","2776.45"
"28.20000","2.35192","2784.5"
"28.30000","2.36059","2792.1"
"28.40000","2.36915","2799.75"
"28.50000","2.37732","2807.99"
"28.60000","2.38548","2815.45"
"28.70000","2.39355","2822.58"
"28.80000","2.40181","2830.61"
"28.90000","2.41028","2837.92"
"29.00000","2.41895","2846.61"
"29.10000","2.42731","2853.74"
"29.20000","2.43558","2860.96"
"29.30000","2.44404","2869.71"
"29.40000","2.45211","2877"
"29.50000","2.46047","2883.4"
"29.60000","2.46884","2890.72"
"29.70000","2.47731","2899.87"
"29.80000","2.48577","2907.14"
"29.90000","2.49434","2914.78"
"30.00000","2.50261","2922.99"
"30.10000","2.51047","2929.32"
"30.20000","2.51863","2936.56"
"30.30000","2.52720","2944.38"
"30.40000","2.53587","2951.94"
"30.50000","2.54413","2959.91"
"30.60000","2.55220","2967.03"
"30.70000","2.56056","2974.4"
"30.80000","2.56883","2981.95"
"30.90000","2.57699","2988.49"
"31.00000","2.58576","2996.66"
"31.10000","2.59413","3004.81"
"31.20000","2.60229","3011.79"
"31.30000","2.61025","3019.34"
"31.40000","2.61872","3027.43"
"31.50000","2.62698","3034.33"
"31.60000","2.63525","3041.78"
"31.70000","2.64392","3048.96"
"31.80000","2.65228","3057.49"
"31.90000","2.66065","3065.52"
"32.00000","2.66881","3072.02"
"32.10000","2.67698","3078.91"
"32.20000","2.68534","3087.04"
"32.30000","2.69361","3094.68"
"32.40000","2.70218","3102.16"
"32.50000","2.71074","3110.08"
"32.60000","2.71911","3117.59"
"32.70000","2.72727","3125.25"
"32.80000","2.73534","3131.85"
"32.90000","2.74360","3138.75"
"33.00000","2.75217","3146.62"
"33.10000","2.76074","3154.76"
"33.20000","2.76920","3161.82"
"33.30000","2.77737","3168.89"
"33.40000","2.78543","3175.28"
"33.50000","2.79360","3182.24"
"33.60000","2.80206","3189.64"
"33.70000","2.81063","3197.29"
"33.80000","2.81910","3204.94"
"33.90000","2.82746","3212.46"
"34.00000","2.83593","3219.7"
"34.10000","2.84389","3226.45"
"34.20000","2.85186","3233.06"
"34.30000","2.86022","3239.8"
"34.40000","2.86879","3248.22"
"34.50000","2.87685","3255.16"
"34.60000","2.88512","3262.09"
"34.70000","2.89389","3269.42"
"34.80000","2.90215","3277.51"
"34.90000","2.91011","3283.42"
"35.00000","2.91848","3290.34"
"35.10000","2.92725","3298.33"
"35.20000","2.93561","3305.65"
"35.30000","2.94408","3313.06"
"35.40000","2.95255","3320.18"
"35.50000","2.96051","3326.71"
"35.60000","2.96857","3332.14"
"35.70000","2.97704","3340.91"
"35.80000","2.98581","3348.34"
"35.90000","2.99418","3355.71"
"36.00000","3.00224","3363.21"
"36.10000","3.01061","3369.57"
"36.20000","3.01877","3375.48"
"36.30000","3.02714","3383.45"
"36.40000","3.03550","3390.41"
"36.50000","3.04407","3397.75"
"36.60000","3.05254","3404.61"
"36.70000","3.06070","3412.12"
"36.80000","3.06876","3418.66"
"36.90000","3.07703","3425.14"
"37.00000","3.08519","3432.61"
"37.10000","3.09346","3439.47"
"37.20000","3.10223","3447.32"
"37.30000","3.11100","3454.47"
"37.40000","3.11926","3461.73"
"37.50000","3.12732","3467.49"
"37.60000","3.13529","3473.67"
"37.70000","3.14355","3481.44"
"37.80000","3.15222","3488.68"
"37.90000","3.16079","3496.57"
"38.00000","3.16905","3502.57"
"38.10000","3.17722","3508.86"
"38.20000","3.18538","3516"
"38.30000","3.19365","3522.25"
"38.40000","3.20201","3528.96"
"38.50000","3.21068","3536.21"
"38.60000","3.21905","3543.75"
"38.70000","3.22751","3549.59"
"38.80000","3.23568","3555.9"
"38.90000","3.24374","3562.31"
"39.00000","3.25191","3568.24"
"39.10000","3.26037","3574.2"
"39.20000","3.26874","3581.14"
"39.30000","3.27731","3588.01"
"39.40000","3.28577","3594.63"
"39.50000","3.29414","3600.9"
"39.60000","3.30200","3606.29"
"39.70000","3.31006","3613.27"
"39.80000","3.31873","3619.39"
"39.90000","3.32730","3626.2"
"40.00000","3.33566","3632.08"
"40.10000","3.34403","3638"
"40.20000","3.35240","3643.47"
"40.30000","3.36016","3649.7"
"40.40000","3.36852","3654.29"
"40.50000","3.37739","3661.06"
"40.60000","3.38596","3668.31"
"40.70000","3.39412","3673.05"
"40.80000","3.40219","3678.77"
"40.90000","3.41066","3684.21"
"41.00000","3.41882","3688.68"
"41.10000","3.42708","3694.7"
"41.20000","3.43565","3699.41"
"41.30000","3.44412","3704.93"
"41.40000","3.45248","3710.94"
"41.50000","3.46065","3714.64"
"41.60000","3.46861","3718.34"
"41.70000","3.47698","3723.87"
"41.80000","3.48524","3727.33"
"41.90000","3.49401","3732.59"
"42.00000","3.50258","3737.33"
"42.10000","3.51094","3741.11"
"42.20000","3.51901","3744.75"
"42.30000","3.52697","3747.41"
"42.40000","3.53514","3750.75"
"42.50000","3.54360","3754.3"
"42.60000","3.55237","3757.56"
"42.70000","3.56084","3760.12"
"42.80000","3.56900","3762.87"
"42.90000","3.57707","3765.93"
"43.00000","3.58533","3766.03"
"43.10000","3.59380","3768.42"
"43.20000","3.60216","3769.67"
"43.30000","3.61073","3771.18"
"43.40000","3.61910","3771.46"
"43.50000","3.62756","3770.99"
"43.60000","3.63573","3771.07"
"43.70000","3.64369","3768.26"
"43.80000","3.65196","3766.13"
"43.90000","3.66062","3763.95"
"44.00000","3.66889","3760.6"
"44.10000","3.67725","3756.22"
"44.20000","3.68592","3750.89"
"44.30000","3.69409","3742.69"
"44.40000","3.70205","3731.6"
"44.50000","3.71031","3720.09"
"44.60000","3.71888","3702.91"
"44.70000","3.72725","3678.87"
"44.80000","3.73561","3635.46"
"44.87200","3.74166","3296.34"
"44.87600","3.74206","2972.18"
"44.88000","3.74247","2587.85"
"44.88400","3.74287","2178.83"