File: Data_Processing/Tensile-Data/Sequence_60.csv
General : Start date,"11/5/2024 8:54 AM"
General : End date,"11/5/2024 8:55 AM"
Specimen notes : Specimen note 1,"Day 3, green, 230, batch 15, seq 60"
Test : Rate 1,"5.00000",mm/min

Time,Extension,Load
(s),(mm),(N)
"0.00000","-0.00010","1.39060"
"0.10000","0.00121","0.46369"
"0.20000","0.01018","11.55448"
"0.30000","0.02328","38.16142"
"0.40000","0.03205","55.79150"
"0.50000","0.04042","69.10045"
"0.60000","0.04969","86.72584"
"0.70000","0.05836","102.15"
"0.80000","0.06662","116.545"
"0.90000","0.07479","129.573"
"1.00000","0.08326","143.91"
"1.10000","0.09162","159.033"
"1.20000","0.10009","173.753"
"1.30000","0.10876","187.033"
"1.40000","0.11682","201.041"
"1.50000","0.12529","214.943"
"1.60000","0.13355","228.861"
"1.70000","0.14182","241.058"
"1.80000","0.15008","254.928"
"1.90000","0.15865","267.533"
"2.00000","0.16722","281.813"
"2.10000","0.17548","296.385"
"2.20000","0.18365","308.501"
"2.30000","0.19161","322.198"
"2.40000","0.19997","335.242"
"2.50000","0.20834","349.383"
"2.60000","0.21681","363.602"
"2.70000","0.22517","376.863"
"2.80000","0.23374","391.665"
"2.90000","0.24201","404.919"
"3.00000","0.24997","417.74"
"3.10000","0.25823","430.825"
"3.20000","0.26670","444.691"
"3.30000","0.27517","458.382"
"3.40000","0.28363","472.218"
"3.50000","0.29190","485.087"
"3.60000","0.30006","497.424"
"3.70000","0.30813","509.388"
"3.80000","0.31649","523.19"
"3.90000","0.32526","536.771"
"4.00000","0.33363","549.899"
"4.10000","0.34179","562.736"
"4.20000","0.35006","574.36"
"4.30000","0.35852","587.574"
"4.40000","0.36679","600.586"
"4.50000","0.37495","612.744"
"4.60000","0.38352","625.934"
"4.70000","0.39199","639.17"
"4.80000","0.40015","651.69"
"4.90000","0.40862","663.341"
"5.00000","0.41688","676.949"
"5.10000","0.42495","688.682"
"5.20000","0.43321","700.756"
"5.30000","0.44178","712.971"
"5.40000","0.45035","725.834"
"5.50000","0.45871","738.62"
"5.60000","0.46698","748.827"
"5.70000","0.47514","760.099"
"5.80000","0.48310","771.811"
"5.90000","0.49147","784.656"
"6.00000","0.50014","796.496"
"6.10000","0.50871","808.102"
"6.20000","0.51697","819.756"
"6.30000","0.52493","830.187"
"6.40000","0.53300","842.129"
"6.50000","0.54146","853.981"
"6.60000","0.55003","864.94"
"6.70000","0.55850","877.577"
"6.80000","0.56676","889.358"
"6.90000","0.57513","899.477"
"7.00000","0.58329","910.797"
"7.10000","0.59156","922.065"
"7.20000","0.59992","933.168"
"7.30000","0.60859","943.793"
"7.40000","0.61706","955.133"
"7.50000","0.62532","966.877"
"7.60000","0.63379","977.42"
"7.70000","0.64185","987.056"
"7.80000","0.65012","998.64"
"7.90000","0.65848","1008.55"
"8.00000","0.66695","1019.24"
"8.10000","0.67532","1030.18"
"8.20000","0.68368","1040.55"
"8.30000","0.69205","1050.48"
"8.40000","0.70001","1060.25"
"8.50000","0.70797","1070.75"
"8.60000","0.71644","1080.85"
"8.70000","0.72511","1091.4"
"8.80000","0.73368","1101.86"
"8.90000","0.74204","1112.5"
"9.00000","0.75021","1123.04"
"9.10000","0.75817","1131.8"
"9.20000","0.76623","1140.63"
"9.30000","0.77500","1151.77"
"9.40000","0.78357","1162.24"
"9.50000","0.79183","1172.1"
"9.60000","0.79990","1181.32"
"9.70000","0.80836","1191.27"
"9.80000","0.81673","1201.55"
"9.90000","0.82490","1210"
"10.00000","0.83336","1221.46"
"10.10000","0.84193","1230.92"
"10.20000","0.85050","1240.45"
"10.30000","0.85866","1250.12"
"10.40000","0.86683","1259.49"
"10.50000","0.87499","1268.05"
"10.60000","0.88325","1276.77"
"10.70000","0.89162","1286.69"
"10.80000","0.90029","1296.69"
"10.90000","0.90886","1304.71"
"11.00000","0.91692","1312.91"
"11.10000","0.92478","1321.3"
"11.20000","0.93305","1330.48"
"11.30000","0.94151","1338.63"
"11.40000","0.95008","1347.79"
"11.50000","0.95845","1357.16"
"11.60000","0.96681","1366.15"
"11.70000","0.97498","1373.92"
"11.80000","0.98284","1383.34"
"11.90000","0.99131","1390.74"
"12.00000","0.99997","1398.46"
"12.10000","1.00844","1408.77"
"12.20000","1.01681","1417.18"
"12.30000","1.02517","1424.68"
"12.40000","1.03354","1433.38"
"12.50000","1.04170","1441.62"
"12.60000","1.04987","1449.9"
"12.70000","1.05833","1458.26"
"12.80000","1.06680","1466.37"
"12.90000","1.07527","1474.66"
"13.00000","1.08373","1484.24"
"13.10000","1.09190","1491.49"
"13.20000","1.09976","1498.82"
"13.30000","1.10823","1507.85"
"13.40000","1.11669","1516.91"
"13.50000","1.12516","1524.66"
"13.60000","1.13353","1532.53"
"13.70000","1.14189","1541.09"
"13.80000","1.15016","1549.63"
"13.90000","1.15822","1558.19"
"14.00000","1.16648","1565.76"
"14.10000","1.17505","1574.26"
"14.20000","1.18362","1582.28"
"14.30000","1.19178","1591.48"
"14.40000","1.19995","1599.07"
"14.50000","1.20841","1607.49"
"14.60000","1.21668","1614.79"
"14.70000","1.22484","1623.8"
"14.80000","1.23341","1632.14"
"14.90000","1.24188","1640.31"
"15.00000","1.25004","1649.05"
"15.10000","1.25841","1656.99"
"15.20000","1.26677","1665.83"
"15.30000","1.27484","1673.63"
"15.40000","1.28310","1681.39"
"15.50000","1.29157","1690.14"
"15.60000","1.30044","1700.06"
"15.70000","1.30870","1708.35"
"15.80000","1.31677","1716.6"
"15.90000","1.32503","1724.68"
"16.00000","1.33350","1732.81"
"16.10000","1.34176","1741.23"
"16.20000","1.35033","1750.19"
"16.30000","1.35870","1758.59"
"16.40000","1.36706","1766.76"
"16.50000","1.37523","1775.5"
"16.60000","1.38319","1783.76"
"16.70000","1.39156","1791.08"
"16.80000","1.40012","1799.42"
"16.90000","1.40859","1808.86"
"17.00000","1.41696","1818.06"
"17.10000","1.42532","1825.31"
"17.20000","1.43349","1834.15"
"17.30000","1.44155","1842.85"
"17.40000","1.44971","1850.54"
"17.50000","1.45838","1860.17"
"17.60000","1.46685","1869.19"
"17.70000","1.47511","1877.53"
"17.80000","1.48378","1885.23"
"17.90000","1.49185","1892.79"
"18.00000","1.49971","1900.74"
"18.10000","1.50818","1908.27"
"18.20000","1.51684","1917.01"
"18.30000","1.52531","1925.76"
"18.40000","1.53368","1934.47"
"18.50000","1.54204","1940.92"
"18.60000","1.55011","1948.61"
"18.70000","1.55807","1955.95"
"18.80000","1.56674","1964.98"
"18.90000","1.57540","1973.49"
"19.00000","1.58357","1980.65"
"19.10000","1.59193","1989.21"
"19.20000","1.60030","1998.26"
"19.30000","1.60846","2005.45"
"19.40000","1.61653","2014.11"
"19.50000","1.62479","2022.77"
"19.60000","1.63346","2031.77"
"19.70000","1.64193","2039.7"
"19.80000","1.65019","2047.97"
"19.90000","1.65846","2055.74"
"20.00000","1.66672","2064.45"
"20.10000","1.67479","2071.95"
"20.20000","1.68325","2080.59"
"20.30000","1.69182","2089.12"
"20.40000","1.70039","2097.41"
"20.50000","1.70875","2105.42"
"20.60000","1.71672","2112.24"
"20.70000","1.72478","2119.77"
"20.80000","1.73315","2128.55"
"20.90000","1.74181","2136.96"
"21.00000","1.75028","2145.15"
"21.10000","1.75855","2153.29"
"21.20000","1.76681","2161.71"
"21.30000","1.77518","2169.7"
"21.40000","1.78324","2177.15"
"21.50000","1.79171","2184.72"
"21.60000","1.80017","2193.7"
"21.70000","1.80864","2201.37"
"21.80000","1.81711","2209.69"
"21.90000","1.82527","2218.06"
"22.00000","1.83323","2224.49"
"22.10000","1.84140","2232.31"
"22.20000","1.84966","2239.54"
"22.30000","1.85823","2249.34"
"22.40000","1.86670","2257.95"
"22.50000","1.87527","2265.91"
"22.60000","1.88333","2274.61"
"22.70000","1.89129","2281.74"
"22.80000","1.89946","2290.04"
"22.90000","1.90833","2298.8"
"23.00000","1.91699","2307.31"
"23.10000","1.92546","2316.16"
"23.20000","1.93352","2323.29"
"23.30000","1.94189","2331.37"
"23.40000","1.94995","2339.52"
"23.50000","1.95822","2346.96"
"23.60000","1.96679","2354.75"
"23.70000","1.97525","2363.42"
"23.80000","1.98342","2371.59"
"23.90000","1.99178","2378.79"
"24.00000","2.00015","2387.22"
"24.10000","2.00831","2394.8"
"24.20000","2.01668","2403.82"
"24.30000","2.02504","2411.14"
"24.40000","2.03371","2419.92"
"24.50000","2.04208","2428.18"
"24.60000","2.05004","2435.77"
"24.70000","2.05821","2442.86"
"24.80000","2.06667","2450.55"
"24.90000","2.07504","2459.52"
"25.00000","2.08340","2468.09"
"25.10000","2.09207","2475.79"
"25.20000","2.10054","2484.41"
"25.30000","2.10840","2491.58"
"25.40000","2.11646","2498.77"
"25.50000","2.12483","2506.7"
"25.60000","2.13340","2514.42"
"25.70000","2.14186","2523.1"
"25.80000","2.15013","2529.74"
"25.90000","2.15850","2539.05"
"26.00000","2.16686","2547.03"
"26.10000","2.17482","2553.87"
"26.20000","2.18319","2560.42"
"26.30000","2.19156","2569.07"
"26.40000","2.19982","2577.18"
"26.50000","2.20849","2585.88"
"26.60000","2.21696","2593.89"
"26.70000","2.22522","2602.41"
"26.80000","2.23328","2609.43"
"26.90000","2.24145","2616.83"
"27.00000","2.25002","2624.94"
"27.10000","2.25858","2633.32"
"27.20000","2.26705","2641.83"
"27.30000","2.27542","2649.6"
"27.40000","2.28358","2657.08"
"27.50000","2.29154","2664.69"
"27.60000","2.29991","2673.14"
"27.70000","2.30848","2680.81"
"27.80000","2.31694","2689.26"
"27.90000","2.32511","2696.46"
"28.00000","2.33337","2704.41"
"28.10000","2.34174","2712.73"
"28.20000","2.34970","2720.27"
"28.30000","2.35827","2728.01"
"28.40000","2.36694","2735.63"
"28.50000","2.37510","2744.13"
"28.60000","2.38337","2752.47"
"28.70000","2.39193","2760.34"
"28.80000","2.40040","2767.49"
"28.90000","2.40846","2775.14"
"29.00000","2.41663","2783.43"
"29.10000","2.42530","2791.22"
"29.20000","2.43376","2799.3"
"29.30000","2.44203","2807.75"
"29.40000","2.45029","2815.02"
"29.50000","2.45846","2822.39"
"29.60000","2.46652","2828.35"
"29.70000","2.47489","2837.58"
"29.80000","2.48345","2845.06"
"29.90000","2.49222","2853.41"
"30.00000","2.50039","2862.33"
"30.10000","2.50845","2869.2"
"30.20000","2.51662","2876.94"
"30.30000","2.52498","2885.1"
"30.40000","2.53345","2892.46"
"30.50000","2.54181","2901.52"
"30.60000","2.55018","2909.21"
"30.70000","2.55844","2916.55"
"30.80000","2.56661","2923.53"
"30.90000","2.57477","2931.27"
"31.00000","2.58314","2938.24"
"31.10000","2.59171","2947.44"
"31.20000","2.59997","2954.7"
"31.30000","2.60844","2961.82"
"31.40000","2.61691","2969.45"
"31.50000","2.62517","2976.98"
"31.60000","2.63323","2984.4"
"31.70000","2.64140","2992.42"
"31.80000","2.65017","3000.5"
"31.90000","2.65863","3008.33"
"32.00000","2.66710","3015.47"
"32.10000","2.67537","3023.16"
"32.20000","2.68333","3031.79"
"32.30000","2.69139","3037.93"
"32.40000","2.69996","3046.09"
"32.50000","2.70883","3054.78"
"32.60000","2.71730","3063.21"
"32.70000","2.72546","3069.67"
"32.80000","2.73352","3076.13"
"32.90000","2.74169","3085.02"
"33.00000","2.74965","3091.94"
"33.10000","2.75812","3098.97"
"33.20000","2.76679","3106.98"
"33.30000","2.77505","3114.6"
"33.40000","2.78332","3121.86"
"33.50000","2.79168","3129.87"
"33.60000","2.79995","3135.92"
"33.70000","2.80801","3144.25"
"33.80000","2.81638","3150.2"
"33.90000","2.82504","3159.23"
"34.00000","2.83371","3167.83"
"34.10000","2.84188","3174.36"
"34.20000","2.85014","3180.92"
"34.30000","2.85810","3188.23"
"34.40000","2.86647","3196.23"
"34.50000","2.87494","3202.85"
"34.60000","2.88371","3210.21"
"34.70000","2.89227","3218.18"
"34.80000","2.90034","3225.71"
"34.90000","2.90830","3232.2"
"35.00000","2.91646","3237.65"
"35.10000","2.92503","3246.83"
"35.20000","2.93340","3254.06"
"35.30000","2.94186","3261.22"
"35.40000","2.95043","3268.98"
"35.50000","2.95860","3276.01"
"35.60000","2.96656","3283.63"
"35.70000","2.97472","3290.35"
"35.80000","2.98329","3298.12"
"35.90000","2.99206","3305.08"
"36.00000","3.00042","3313.03"
"36.10000","3.00869","3319.82"
"36.20000","3.01706","3327.94"
"36.30000","3.02492","3333.96"
"36.40000","3.03308","3340.48"
"36.50000","3.04155","3347.72"
"36.60000","3.05012","3356.19"
"36.70000","3.05848","3362.53"
"36.80000","3.06685","3369.82"
"36.90000","3.07521","3377.51"
"37.00000","3.08318","3384.4"
"37.10000","3.09144","3390.4"
"37.20000","3.10021","3397.98"
"37.30000","3.10868","3405.13"
"37.40000","3.11694","3412.13"
"37.50000","3.12521","3418.86"
"37.60000","3.13357","3425.89"
"37.70000","3.14154","3433.49"
"37.80000","3.15000","3439.78"
"37.90000","3.15857","3447.4"
"38.00000","3.16704","3453.82"
"38.10000","3.17530","3461.83"
"38.20000","3.18357","3467.93"
"38.30000","3.19193","3475.67"
"38.40000","3.20020","3482.72"
"38.50000","3.20816","3489.13"
"38.60000","3.21663","3495.68"
"38.70000","3.22530","3503.03"
"38.80000","3.23366","3511.03"
"38.90000","3.24183","3517.11"
"39.00000","3.24989","3523.26"
"39.10000","3.25795","3529.49"
"39.20000","3.26642","3537.71"
"39.30000","3.27509","3544.05"
"39.40000","3.28365","3552.63"
"39.50000","3.29202","3558.6"
"39.60000","3.30008","3565.67"
"39.70000","3.30825","3572.39"
"39.80000","3.31661","3578.62"
"39.90000","3.32518","3586.11"
"40.00000","3.33365","3592.23"
"40.10000","3.34191","3599.73"
"40.20000","3.35018","3605.57"
"40.30000","3.35844","3612.12"
"40.40000","3.36661","3617.9"
"40.50000","3.37487","3624.54"
"40.60000","3.38324","3630.42"
"40.70000","3.39181","3637.98"
"40.80000","3.40037","3645.68"
"40.90000","3.40864","3651.83"
"41.00000","3.41690","3658.61"
"41.10000","3.42497","3664.32"
"41.20000","3.43323","3669.98"
"41.30000","3.44170","3676.37"
"41.40000","3.45027","3684.38"
"41.50000","3.45863","3690.35"
"41.60000","3.46690","3696.31"
"41.70000","3.47496","3702.15"
"41.80000","3.48292","3708.01"
"41.90000","3.49139","3713.22"
"42.00000","3.50026","3720.77"
"42.10000","3.50873","3727.75"
"42.20000","3.51699","3733.58"
"42.30000","3.52526","3738.15"
"42.40000","3.53352","3743.41"
"42.50000","3.54149","3749.85"
"42.60000","3.54985","3754.98"
"42.70000","3.55852","3760.15"
"42.80000","3.56699","3766.97"
"42.90000","3.57525","3772.74"
"43.00000","3.58372","3778.83"
"43.10000","3.59198","3783.12"
"43.20000","3.60005","3788.54"
"43.30000","3.60821","3793.16"
"43.40000","3.61688","3798.85"
"43.50000","3.62545","3803.39"
"43.60000","3.63371","3808.55"
"43.70000","3.64188","3813.57"
"43.80000","3.65004","3816.89"
"43.90000","3.65810","3821.64"
"44.00000","3.66657","3825.83"
"44.10000","3.67514","3830.16"
"44.20000","3.68381","3835.07"
"44.30000","3.69197","3839.03"
"44.40000","3.69983","3842.26"
"44.50000","3.70800","3845.29"
"44.60000","3.71646","3848.49"
"44.70000","3.72493","3853.11"
"44.80000","3.73319","3857.06"
"44.90000","3.74166","3859.63"
"45.00000","3.75013","3863.06"
"45.10000","3.75839","3865.9"
"45.20000","3.76646","3866.7"
"45.30000","3.77492","3869.43"
"45.40000","3.78349","3870.94"
"45.50000","3.79196","3873.34"
"45.60000","3.80042","3875.08"
"45.70000","3.80889","3875.11"
"45.80000","3.81675","3875.83"
"45.90000","3.82482","3874.77"
"46.00000","3.83318","3874.37"
"46.10000","3.84185","3874.25"
"46.20000","3.85032","3872.63"
"46.30000","3.85878","3870.16"
"46.40000","3.86705","3866.76"
"46.50000","3.87491","3861.45"
"46.60000","3.88307","3854.51"
"46.70000","3.89174","3845.4"
"46.80000","3.90031","3833.67"
"46.90000","3.90858","3816.39"
"47.00000","3.91704","3790.31"
"47.10000","3.92531","3735.18"
"47.13800","3.92833","3411.52"
"47.14200","3.92873","3070.48"
"47.14600","3.92904","2672.43"
"47.15000","3.92954","2245.87"