File: Data_Processing/Tensile-Data/Sequence_50.csv
General : Start date,"11/5/2024 8:33 AM"
General : End date,"11/5/2024 8:34 AM"
Specimen notes : Specimen note 1,"Day 3, blue, 230, batch 14, seq 50"
Test : Rate 1,"5.00000",mm/min

Time,Extension,Load
(s),(mm),(N)
"0.00000","0.00000","0.32524"
"0.10000","0.00192","0.97713"
"0.20000","0.01139","14.19440"
"0.30000","0.02359","38.50404"
"0.40000","0.03266","56.22188"
"0.50000","0.04112","71.07360"
"0.60000","0.04989","85.91277"
"0.70000","0.05836","101.299"
"0.80000","0.06683","115.48"
"0.90000","0.07509","129.417"
"1.00000","0.08346","142.461"
"1.10000","0.09213","155.188"
"1.20000","0.10039","170.682"
"1.30000","0.10866","183.401"
"1.40000","0.11712","197.319"
"1.50000","0.12529","210.039"
"1.60000","0.13355","223.519"
"1.70000","0.14192","238.221"
"1.80000","0.15038","249.946"
"1.90000","0.15875","263.856"
"2.00000","0.16712","277.528"
"2.10000","0.17528","291.022"
"2.20000","0.18344","303.342"
"2.30000","0.19161","317.05"
"2.40000","0.20018","330.451"
"2.50000","0.20874","343.866"
"2.60000","0.21721","357.544"
"2.70000","0.22527","371.72"
"2.80000","0.23334","384.609"
"2.90000","0.24150","396.396"
"3.00000","0.25007","411.519"
"3.10000","0.25854","424.526"
"3.20000","0.26680","437.11"
"3.30000","0.27497","450.326"
"3.40000","0.28353","463.543"
"3.50000","0.29190","476.571"
"3.60000","0.30016","488.929"
"3.70000","0.30853","500.739"
"3.80000","0.31700","513.141"
"3.90000","0.32546","525.96"
"4.00000","0.33393","538.918"
"4.10000","0.34230","551.453"
"4.20000","0.35026","564.231"
"4.30000","0.35852","575.778"
"4.40000","0.36699","588.457"
"4.50000","0.37536","600.281"
"4.60000","0.38372","613.686"
"4.70000","0.39209","625.817"
"4.80000","0.40055","636.809"
"4.90000","0.40852","648.467"
"5.00000","0.41648","659.733"
"5.10000","0.42515","672.857"
"5.20000","0.43361","683.297"
"5.30000","0.44208","695.942"
"5.40000","0.45045","706.023"
"5.50000","0.45861","718.955"
"5.60000","0.46667","728.964"
"5.70000","0.47494","740.067"
"5.80000","0.48361","751.214"
"5.90000","0.49207","762.312"
"6.00000","0.49994","772.038"
"6.10000","0.50830","784.574"
"6.20000","0.51697","794.276"
"6.30000","0.52534","806.44"
"6.40000","0.53340","815.748"
"6.50000","0.54177","827.103"
"6.60000","0.55053","836.757"
"6.70000","0.55900","848.622"
"6.80000","0.56717","860.239"
"6.90000","0.57533","870.084"
"7.00000","0.58339","879.89"
"7.10000","0.59166","890.025"
"7.20000","0.60023","901.094"
"7.30000","0.60879","911.64"
"7.40000","0.61726","922.271"
"7.50000","0.62522","930.988"
"7.60000","0.63319","940.037"
"7.70000","0.64145","950.202"
"7.80000","0.64992","961.151"
"7.90000","0.65859","970.626"
"8.00000","0.66705","980.193"
"8.10000","0.67532","989.212"
"8.20000","0.68338","999.554"
"8.30000","0.69134","1007.99"
"8.40000","0.69971","1018.72"
"8.50000","0.70848","1027.51"
"8.60000","0.71684","1037.12"
"8.70000","0.72521","1047.23"
"8.80000","0.73378","1055.74"
"8.90000","0.74194","1066"
"9.00000","0.75011","1073.19"
"9.10000","0.75837","1083.28"
"9.20000","0.76664","1092.22"
"9.30000","0.77530","1101.39"
"9.40000","0.78377","1108.75"
"9.50000","0.79224","1117.94"
"9.60000","0.80030","1125.13"
"9.70000","0.80816","1133.98"
"9.80000","0.81653","1142.91"
"9.90000","0.82530","1152.74"
"10.00000","0.83366","1160.67"
"10.10000","0.84213","1168.75"
"10.20000","0.85050","1177.22"
"10.30000","0.85846","1187.46"
"10.40000","0.86652","1195.23"
"10.50000","0.87509","1205.22"
"10.60000","0.88376","1212.43"
"10.70000","0.89212","1221.52"
"10.80000","0.90019","1231.04"
"10.90000","0.90855","1238.98"
"11.00000","0.91682","1247.16"
"11.10000","0.92498","1254.45"
"11.20000","0.93335","1263.78"
"11.30000","0.94192","1271.28"
"11.40000","0.95038","1281.29"
"11.50000","0.95855","1287.93"
"11.60000","0.96671","1296.92"
"11.70000","0.97498","1304"
"11.80000","0.98314","1312.88"
"11.90000","0.99141","1318.48"
"12.00000","1.00018","1326.95"
"12.10000","1.00894","1335.18"
"12.20000","1.01711","1343.48"
"12.30000","1.02507","1351.17"
"12.40000","1.03344","1360.38"
"12.50000","1.04200","1367.31"
"12.60000","1.05037","1376.36"
"12.70000","1.05884","1384.41"
"12.80000","1.06720","1391.45"
"12.90000","1.07537","1400.73"
"13.00000","1.08353","1407.99"
"13.10000","1.09160","1415.63"
"13.20000","1.10016","1424.03"
"13.30000","1.10873","1433.99"
"13.40000","1.11699","1442.4"
"13.50000","1.12546","1450.2"
"13.60000","1.13373","1457.57"
"13.70000","1.14179","1465.31"
"13.80000","1.14995","1473.34"
"13.90000","1.15832","1482.99"
"14.00000","1.16699","1490.4"
"14.10000","1.17525","1499.12"
"14.20000","1.18362","1505.77"
"14.30000","1.19209","1514.35"
"14.40000","1.19995","1522.91"
"14.50000","1.20821","1530.14"
"14.60000","1.21678","1538.29"
"14.70000","1.22545","1546.39"
"14.80000","1.23381","1554.41"
"14.90000","1.24208","1562.19"
"15.00000","1.25034","1570.78"
"15.10000","1.25841","1577.4"
"15.20000","1.26657","1585.34"
"15.30000","1.27524","1593.17"
"15.40000","1.28381","1602.76"
"15.50000","1.29197","1609.85"
"15.60000","1.30024","1618.41"
"15.70000","1.30860","1626.46"
"15.80000","1.31697","1634.9"
"15.90000","1.32503","1641.58"
"16.00000","1.33340","1651.09"
"16.10000","1.34197","1658.44"
"16.20000","1.35023","1667.54"
"16.30000","1.35870","1674.63"
"16.40000","1.36686","1683.78"
"16.50000","1.37503","1690.78"
"16.60000","1.38329","1700.8"
"16.70000","1.39176","1708.12"
"16.80000","1.40033","1715.41"
"16.90000","1.40889","1724.92"
"17.00000","1.41706","1732.52"
"17.10000","1.42512","1740.71"
"17.20000","1.43329","1747.17"
"17.30000","1.44175","1756.21"
"17.40000","1.45032","1764.09"
"17.50000","1.45869","1773.13"
"17.60000","1.46695","1780.34"
"17.70000","1.47542","1788.16"
"17.80000","1.48338","1795.24"
"17.90000","1.49175","1803.49"
"18.00000","1.50031","1810.81"
"18.10000","1.50858","1820.04"
"18.20000","1.51694","1827.23"
"18.30000","1.52541","1835.72"
"18.40000","1.53368","1843.06"
"18.50000","1.54174","1850.78"
"18.60000","1.54980","1858.14"
"18.70000","1.55817","1866.92"
"18.80000","1.56664","1874.35"
"18.90000","1.57510","1882.49"
"19.00000","1.58367","1890.83"
"19.10000","1.59183","1897.76"
"19.20000","1.59970","1905.9"
"19.30000","1.60806","1914.07"
"19.40000","1.61683","1921.9"
"19.50000","1.62550","1929.75"
"19.60000","1.63376","1938.03"
"19.70000","1.64203","1945.12"
"19.80000","1.65029","1952.8"
"19.90000","1.65836","1959.75"
"20.00000","1.66652","1967.92"
"20.10000","1.67529","1975.72"
"20.20000","1.68366","1985.2"
"20.30000","1.69182","1992.46"
"20.40000","1.70029","2001.27"
"20.50000","1.70865","2008.52"
"20.60000","1.71682","2016.79"
"20.70000","1.72498","2026.32"
"20.80000","1.73355","2033.47"
"20.90000","1.74212","2042.68"
"21.00000","1.75038","2049.97"
"21.10000","1.75845","2058.47"
"21.20000","1.76661","2066.63"
"21.30000","1.77498","2075.26"
"21.40000","1.78334","2082.03"
"21.50000","1.79201","2090.72"
"21.60000","1.80068","2098.6"
"21.70000","1.80884","2106.74"
"21.80000","1.81691","2113.84"
"21.90000","1.82507","2121.61"
"22.00000","1.83344","2128.32"
"22.10000","1.84190","2137.08"
"22.20000","1.85017","2144.76"
"22.30000","1.85863","2152.45"
"22.40000","1.86700","2159.88"
"22.50000","1.87516","2168.34"
"22.60000","1.88323","2175.3"
"22.70000","1.89170","2182.45"
"22.80000","1.90016","2191.68"
"22.90000","1.90853","2198.34"
"23.00000","1.91699","2206.74"
"23.10000","1.92546","2213.59"
"23.20000","1.93363","2222.5"
"23.30000","1.94159","2229.11"
"23.40000","1.94985","2237.92"
"23.50000","1.95862","2245.6"
"23.60000","1.96709","2253.99"
"23.70000","1.97556","2261.61"
"23.80000","1.98382","2269.15"
"23.90000","1.99178","2276.89"
"24.00000","1.99985","2284.81"
"24.10000","2.00831","2292.37"
"24.20000","2.01708","2301.49"
"24.30000","2.02545","2307.85"
"24.40000","2.03361","2317.29"
"24.50000","2.04178","2324.22"
"24.60000","2.04994","2333.19"
"24.70000","2.05821","2340.32"
"24.80000","2.06677","2347.91"
"24.90000","2.07544","2357.54"
"25.00000","2.08361","2364.14"
"25.10000","2.09187","2372.74"
"25.20000","2.10024","2381.23"
"25.30000","2.10860","2388.55"
"25.40000","2.11677","2395.82"
"25.50000","2.12513","2405.16"
"25.60000","2.13380","2412.69"
"25.70000","2.14227","2421.74"
"25.80000","2.15053","2428.3"
"25.90000","2.15870","2437.62"
"26.00000","2.16676","2445.22"
"26.10000","2.17503","2453.33"
"26.20000","2.18339","2460.67"
"26.30000","2.19206","2469.43"
"26.40000","2.20073","2475.96"
"26.50000","2.20879","2485.03"
"26.60000","2.21665","2492.58"
"26.70000","2.22502","2499.72"
"26.80000","2.23349","2508.91"
"26.90000","2.24195","2516.51"
"27.00000","2.25042","2525.01"
"27.10000","2.25868","2532.56"
"27.20000","2.26685","2540.28"
"27.30000","2.27491","2546.85"
"27.40000","2.28308","2554.45"
"27.50000","2.29185","2562.3"
"27.60000","2.30021","2571.39"
"27.70000","2.30848","2577.93"
"27.80000","2.31684","2586.3"
"27.90000","2.32531","2593.52"
"28.00000","2.33357","2601.78"
"28.10000","2.34164","2608.99"
"28.20000","2.35000","2617.84"
"28.30000","2.35857","2625.83"
"28.40000","2.36704","2634.14"
"28.50000","2.37540","2641.28"
"28.60000","2.38367","2649.95"
"28.70000","2.39163","2657.71"
"28.80000","2.39990","2664.76"
"28.90000","2.40856","2674.42"
"29.00000","2.41743","2681.96"
"29.10000","2.42570","2690.57"
"29.20000","2.43376","2698"
"29.30000","2.44203","2706.4"
"29.40000","2.45009","2712.61"
"29.50000","2.45816","2720.89"
"29.60000","2.46672","2728.51"
"29.70000","2.47519","2737.2"
"29.80000","2.48345","2744.11"
"29.90000","2.49162","2752.07"
"30.00000","2.50009","2758.55"
"30.10000","2.50835","2766.5"
"30.20000","2.51651","2773.47"
"30.30000","2.52498","2782.84"
"30.40000","2.53365","2790.65"
"30.50000","2.54202","2798.88"
"30.60000","2.55028","2805.61"
"30.70000","2.55844","2813.16"
"30.80000","2.56661","2821.09"
"30.90000","2.57498","2828.2"
"31.00000","2.58354","2837.63"
"31.10000","2.59221","2844.58"
"31.20000","2.60058","2853.97"
"31.30000","2.60864","2860.86"
"31.40000","2.61670","2869.58"
"31.50000","2.62517","2876.41"
"31.60000","2.63344","2883.91"
"31.70000","2.64190","2891.27"
"31.80000","2.65027","2898.83"
"31.90000","2.65873","2906.35"
"32.00000","2.66700","2915.92"
"32.10000","2.67506","2922.03"
"32.20000","2.68323","2929.17"
"32.30000","2.69179","2937.52"
"32.40000","2.70046","2945.79"
"32.50000","2.70893","2953.21"
"32.60000","2.71730","2961.27"
"32.70000","2.72536","2967.87"
"32.80000","2.73322","2974.58"
"32.90000","2.74149","2983.33"
"33.00000","2.75026","2990.93"
"33.10000","2.75872","2998.1"
"33.20000","2.76699","3005.34"
"33.30000","2.77545","3013.76"
"33.40000","2.78362","3021.46"
"33.50000","2.79148","3028.18"
"33.60000","2.79985","3035.2"
"33.70000","2.80861","3044.4"
"33.80000","2.81708","3051.35"
"33.90000","2.82535","3058.63"
"34.00000","2.83361","3066.95"
"34.10000","2.84178","3075.36"
"34.20000","2.84994","3083.14"
"34.30000","2.85841","3089.99"
"34.40000","2.86697","3098.2"
"34.50000","2.87534","3105.2"
"34.60000","2.88381","3113.66"
"34.70000","2.89217","3121.48"
"34.80000","2.90034","3127.93"
"34.90000","2.90840","3135.5"
"35.00000","2.91656","3142.67"
"35.10000","2.92533","3151.1"
"35.20000","2.93390","3158.54"
"35.30000","2.94217","3165.67"
"35.40000","2.95033","3171.74"
"35.50000","2.95829","3180.28"
"35.60000","2.96636","3186.89"
"35.70000","2.97482","3195.87"
"35.80000","2.98359","3202.84"
"35.90000","2.99226","3211.14"
"36.00000","3.00053","3217.44"
"36.10000","3.00859","3225.21"
"36.20000","3.01675","3231.48"
"36.30000","3.02512","3240.28"
"36.40000","3.03349","3247.07"
"36.50000","3.04195","3254.99"
"36.60000","3.05042","3261.21"
"36.70000","3.05868","3269.9"
"36.80000","3.06675","3278.1"
"36.90000","3.07481","3284.13"
"37.00000","3.08338","3291.6"
"37.10000","3.09195","3299.23"
"37.20000","3.10051","3307.55"
"37.30000","3.10888","3314.17"
"37.40000","3.11714","3322.32"
"37.50000","3.12521","3328.69"
"37.60000","3.13317","3336.49"
"37.70000","3.14164","3342.87"
"37.80000","3.15020","3351.63"
"37.90000","3.15877","3358.88"
"38.00000","3.16724","3365.91"
"38.10000","3.17530","3372.54"
"38.20000","3.18326","3379.62"
"38.30000","3.19133","3386.07"
"38.40000","3.20010","3393.5"
"38.50000","3.20877","3401.97"
"38.60000","3.21713","3408.61"
"38.70000","3.22540","3415.91"
"38.80000","3.23366","3423.22"
"38.90000","3.24162","3431.05"
"39.00000","3.24999","3437.22"
"39.10000","3.25856","3445.68"
"39.20000","3.26712","3453.1"
"39.30000","3.27529","3460.47"
"39.40000","3.28355","3466.53"
"39.50000","3.29222","3475.36"
"39.60000","3.30029","3481.91"
"39.70000","3.30835","3489.07"
"39.80000","3.31682","3495.76"
"39.90000","3.32538","3503.11"
"40.00000","3.33385","3510.35"
"40.10000","3.34201","3517.09"
"40.20000","3.35028","3524.58"
"40.30000","3.35844","3531.7"
"40.40000","3.36671","3537.2"
"40.50000","3.37518","3545.03"
"40.60000","3.38374","3551.93"
"40.70000","3.39211","3560.15"
"40.80000","3.40017","3566.37"
"40.90000","3.40814","3572.42"
"41.00000","3.41640","3579.18"
"41.10000","3.42507","3586.87"
"41.20000","3.43354","3593.94"
"41.30000","3.44190","3600.84"
"41.40000","3.45037","3607.6"
"41.50000","3.45863","3614.21"
"41.60000","3.46670","3621.13"
"41.70000","3.47506","3627.58"
"41.80000","3.48353","3635.08"
"41.90000","3.49200","3641.88"
"42.00000","3.50046","3649.42"
"42.10000","3.50893","3655.13"
"42.20000","3.51719","3661.89"
"42.30000","3.52516","3667.45"
"42.40000","3.53332","3674.02"
"42.50000","3.54179","3681.81"
"42.60000","3.55035","3688.67"
"42.70000","3.55872","3695.25"
"42.80000","3.56709","3701.57"
"42.90000","3.57525","3706.98"
"43.00000","3.58331","3714.13"
"43.10000","3.59168","3720.24"
"43.20000","3.60025","3727.66"
"43.30000","3.60861","3732.93"
"43.40000","3.61708","3740.86"
"43.50000","3.62535","3746.19"
"43.60000","3.63371","3752.74"
"43.70000","3.64167","3758.45"
"43.80000","3.65004","3764.06"
"43.90000","3.65851","3769.25"
"44.00000","3.66687","3777.1"
"44.10000","3.67514","3782.96"
"44.20000","3.68360","3789.4"
"44.30000","3.69207","3795.34"
"44.40000","3.70013","3800.32"
"44.50000","3.70820","3805.44"
"44.60000","3.71687","3812.58"
"44.70000","3.72553","3819.19"
"44.80000","3.73380","3823.95"
"44.90000","3.74206","3830.64"
"45.00000","3.75023","3835.97"
"45.10000","3.75819","3841.8"
"45.20000","3.76656","3846.98"
"45.30000","3.77523","3852.34"
"45.40000","3.78389","3859.18"
"45.50000","3.79226","3863.81"
"45.60000","3.80022","3868.22"
"45.70000","3.80839","3874.21"
"45.80000","3.81675","3878.85"
"45.90000","3.82512","3885.76"
"46.00000","3.83359","3889.54"
"46.10000","3.84215","3894.39"
"46.20000","3.85032","3898.96"
"46.30000","3.85848","3904.41"
"46.40000","3.86644","3908.44"
"46.50000","3.87491","3912.96"
"46.60000","3.88338","3917.61"
"46.70000","3.89164","3921.97"
"46.80000","3.90031","3926.54"
"46.90000","3.90888","3930.68"
"47.00000","3.91704","3933.29"
"47.10000","3.92500","3936.46"
"47.20000","3.93327","3939.82"
"47.30000","3.94194","3943.11"
"47.40000","3.95040","3947.61"
"47.50000","3.95877","3949.02"
"47.60000","3.96714","3950.88"
"47.70000","3.97520","3952.35"
"47.80000","3.98316","3953.25"
"47.90000","3.99163","3954.99"
"48.00000","4.00040","3956.16"
"48.10000","4.00897","3957.39"
"48.20000","4.01713","3958.53"
"48.30000","4.02529","3957.62"
"48.40000","4.03346","3955.73"
"48.50000","4.04162","3955.1"
"48.60000","4.04999","3952.89"
"48.70000","4.05866","3951.53"
"48.80000","4.06702","3949.19"
"48.90000","4.07519","3944.88"
"49.00000","4.08365","3940.91"
"49.10000","4.09202","3935.91"
"49.20000","4.10008","3929.99"
"49.30000","4.10835","3920.78"
"49.40000","4.11692","3912.44"
"49.50000","4.12528","3899.95"
"49.60000","4.13365","3886.29"
"49.70000","4.14201","3866.27"
"49.80000","4.15018","3840.05"
"49.90000","4.15834","3790.39"
"49.97000","4.16439","3487.96"
"49.97400","4.16469","3159.53"
"49.97800","4.16510","2771.89"
"49.98200","4.16560","2345.08"
"49.98400","4.16580","2132.67"