File: Data_Processing/Tensile-Data/Sequence_15.csv
General : Start date,"10/22/2024 9:53 AM"
General : End date,"10/22/2024 9:54 AM"
Specimen notes : Specimen note 1,"green, 200, batch 2, seq 15"
Test : Rate 1,"5.00000",mm/min

Time,Extension,Load
(s),(mm),(N)
"0.00000","0.00000","-0.73047"
"0.10000","0.00111","-0.21648"
"0.20000","0.00867","7.86480"
"0.30000","0.02248","33.38733"
"0.40000","0.03256","53.07104"
"0.50000","0.04062","67.78328"
"0.60000","0.04959","83.04321"
"0.70000","0.05816","97.66927"
"0.80000","0.06642","110.753"
"0.90000","0.07499","125.012"
"1.00000","0.08356","129.525"
"1.10000","0.09202","143.147"
"1.20000","0.10029","157.407"
"1.30000","0.10835","170.335"
"1.40000","0.11642","184.395"
"1.50000","0.12498","198.051"
"1.60000","0.13345","212.074"
"1.70000","0.14192","226.654"
"1.80000","0.15028","240.449"
"1.90000","0.15885","254.669"
"2.00000","0.16691","267.783"
"2.10000","0.17488","280.554"
"2.20000","0.18334","294.589"
"2.30000","0.19191","308.584"
"2.40000","0.20028","322.224"
"2.50000","0.20864","335.482"
"2.60000","0.21701","349.159"
"2.70000","0.22497","362.208"
"2.80000","0.23344","374.778"
"2.90000","0.24170","389.338"
"3.00000","0.25017","403.371"
"3.10000","0.25864","417.228"
"3.20000","0.26690","431.633"
"3.30000","0.27527","443.992"
"3.40000","0.28353","456.508"
"3.50000","0.29160","470.237"
"3.60000","0.29996","483.419"
"3.70000","0.30843","497.442"
"3.80000","0.31700","510.617"
"3.90000","0.32536","524.307"
"4.00000","0.33353","537.69"
"4.10000","0.34179","551.386"
"4.20000","0.34985","564.097"
"4.30000","0.35822","577.949"
"4.40000","0.36689","591.44"
"4.50000","0.37536","605.063"
"4.60000","0.38362","619.59"
"4.70000","0.39178","632.304"
"4.80000","0.39995","644.758"
"4.90000","0.40811","657.709"
"5.00000","0.41668","670.698"
"5.10000","0.42535","684.075"
"5.20000","0.43382","697.092"
"5.30000","0.44188","710.199"
"5.40000","0.44994","722.558"
"5.50000","0.45841","736.019"
"5.60000","0.46667","747.678"
"5.70000","0.47504","761.237"
"5.80000","0.48361","774.664"
"5.90000","0.49197","787.587"
"6.00000","0.50024","800.573"
"6.10000","0.50850","813.284"
"6.20000","0.51657","825.579"
"6.30000","0.52493","839.079"
"6.40000","0.53360","851.626"
"6.50000","0.54207","865.511"
"6.60000","0.55053","879.196"
"6.70000","0.55870","890.139"
"6.80000","0.56676","903.712"
"6.90000","0.57483","915.637"
"7.00000","0.58339","927.857"
"7.10000","0.59186","941.376"
"7.20000","0.60002","953.748"
"7.30000","0.60849","966.485"
"7.40000","0.61696","979.2"
"7.50000","0.62492","990.882"
"7.60000","0.63288","1003.03"
"7.70000","0.64135","1016.02"
"7.80000","0.65002","1029.97"
"7.90000","0.65848","1043.39"
"8.00000","0.66685","1055.39"
"8.10000","0.67522","1067.43"
"8.20000","0.68328","1079.79"
"8.30000","0.69155","1092.63"
"8.40000","0.70011","1105.68"
"8.50000","0.70878","1118.78"
"8.60000","0.71695","1129.24"
"8.70000","0.72521","1141.8"
"8.80000","0.73337","1153.74"
"8.90000","0.74154","1166.54"
"9.00000","0.75001","1179.29"
"9.10000","0.75847","1191.75"
"9.20000","0.76704","1205.19"
"9.30000","0.77541","1217.66"
"9.40000","0.78357","1230.46"
"9.50000","0.79173","1242.99"
"9.60000","0.80000","1254.48"
"9.70000","0.80836","1267.97"
"9.80000","0.81663","1279.21"
"9.90000","0.82540","1292.09"
"10.00000","0.83397","1303.72"
"10.10000","0.84213","1316.27"
"10.20000","0.85009","1326.74"
"10.30000","0.85806","1339.57"
"10.40000","0.86652","1351.66"
"10.50000","0.87509","1363.79"
"10.60000","0.88366","1376.56"
"10.70000","0.89192","1388.38"
"10.80000","0.89989","1398.83"
"10.90000","0.90795","1410.05"
"11.00000","0.91642","1422.55"
"11.10000","0.92498","1434.53"
"11.20000","0.93345","1446.05"
"11.30000","0.94202","1458.33"
"11.40000","0.95028","1471.43"
"11.50000","0.95865","1483.93"
"11.60000","0.96671","1495.27"
"11.70000","0.97508","1505.1"
"11.80000","0.98344","1518.8"
"11.90000","0.99171","1529.83"
"12.00000","1.00007","1541.66"
"12.10000","1.00874","1553.77"
"12.20000","1.01701","1565.12"
"12.30000","1.02487","1575.69"
"12.40000","1.03324","1587.57"
"12.50000","1.04190","1599.85"
"12.60000","1.05047","1611.85"
"12.70000","1.05864","1622.8"
"12.80000","1.06690","1634.7"
"12.90000","1.07506","1646.49"
"13.00000","1.08313","1657.5"
"13.10000","1.09149","1668.23"
"13.20000","1.10026","1680.27"
"13.30000","1.10883","1692.97"
"13.40000","1.11699","1703.6"
"13.50000","1.12496","1714.94"
"13.60000","1.13353","1727.25"
"13.70000","1.14169","1738.3"
"13.80000","1.15006","1750.08"
"13.90000","1.15852","1760.95"
"14.00000","1.16679","1770.65"
"14.10000","1.17515","1782.69"
"14.20000","1.18332","1793.4"
"14.30000","1.19148","1802.78"
"14.40000","1.19965","1812.91"
"14.50000","1.20811","1824.14"
"14.60000","1.21688","1836.36"
"14.70000","1.22535","1848.64"
"14.80000","1.23371","1859.28"
"14.90000","1.24188","1870.32"
"15.00000","1.24984","1881.39"
"15.10000","1.25821","1891.79"
"15.20000","1.26667","1903.27"
"15.30000","1.27524","1913.54"
"15.40000","1.28391","1925.51"
"15.50000","1.29217","1936.33"
"15.60000","1.30014","1946.13"
"15.70000","1.30830","1956.04"
"15.80000","1.31657","1967.14"
"15.90000","1.32503","1977.63"
"16.00000","1.33350","1988.85"
"16.10000","1.34207","2000.32"
"16.20000","1.35033","2011.37"
"16.30000","1.35850","2021.48"
"16.40000","1.36656","2030.98"
"16.50000","1.37513","2042.51"
"16.60000","1.38359","2053.81"
"16.70000","1.39166","2065.41"
"16.80000","1.39992","2075.77"
"16.90000","1.40879","2086.75"
"17.00000","1.41696","2097.71"
"17.10000","1.42482","2108.21"
"17.20000","1.43318","2118.22"
"17.30000","1.44185","2129.63"
"17.40000","1.45022","2140.21"
"17.50000","1.45858","2150.09"
"17.60000","1.46695","2160.46"
"17.70000","1.47501","2169.68"
"17.80000","1.48328","2179.65"
"17.90000","1.49164","2191.13"
"18.00000","1.50041","2202.81"
"18.10000","1.50868","2212.35"
"18.20000","1.51694","2221.46"
"18.30000","1.52521","2231.43"
"18.40000","1.53337","2240.19"
"18.50000","1.54164","2250.66"
"18.60000","1.54990","2261.74"
"18.70000","1.55867","2271.98"
"18.80000","1.56694","2282.91"
"18.90000","1.57530","2291.48"
"19.00000","1.58347","2301.59"
"19.10000","1.59163","2311.18"
"19.20000","1.59980","2321.95"
"19.30000","1.60826","2332.8"
"19.40000","1.61693","2343"
"19.50000","1.62530","2352.67"
"19.60000","1.63376","2361.01"
"19.70000","1.64193","2369.71"
"19.80000","1.64989","2379.89"
"19.90000","1.65816","2388.46"
"20.00000","1.66682","2400.26"
"20.10000","1.67539","2409.55"
"20.20000","1.68376","2419.85"
"20.30000","1.69192","2430.46"
"20.40000","1.69999","2437.65"
"20.50000","1.70815","2446.05"
"20.60000","1.71662","2455.27"
"20.70000","1.72518","2465.83"
"20.80000","1.73355","2476.18"
"20.90000","1.74202","2485.32"
"21.00000","1.75038","2495.4"
"21.10000","1.75824","2506.03"
"21.20000","1.76641","2514.1"
"21.30000","1.77477","2524.02"
"21.40000","1.78334","2534.04"
"21.50000","1.79181","2543.29"
"21.60000","1.80078","2552.83"
"21.70000","1.80884","2562.19"
"21.80000","1.81670","2570.76"
"21.90000","1.82477","2580.25"
"22.00000","1.83344","2589.02"
"22.10000","1.84190","2599.12"
"22.20000","1.85017","2608.88"
"22.30000","1.85843","2617.93"
"22.40000","1.86700","2627.31"
"22.50000","1.87496","2635.87"
"22.60000","1.88313","2646.48"
"22.70000","1.89180","2656.07"
"22.80000","1.90056","2665.4"
"22.90000","1.90863","2673.78"
"23.00000","1.91689","2680.82"
"23.10000","1.92526","2685.94"
"23.20000","1.93332","2694.85"
"23.30000","1.94149","2703.45"
"23.40000","1.95016","2713.12"
"23.50000","1.95872","2723.01"
"23.60000","1.96719","2732.14"
"23.70000","1.97525","2740.67"
"23.80000","1.98311","2748.46"
"23.90000","1.99148","2757.05"
"24.00000","1.99985","2764.37"
"24.10000","2.00851","2773.95"
"24.20000","2.01718","2782.03"
"24.30000","2.02535","2790.88"
"24.40000","2.03341","2799.07"
"24.50000","2.04157","2807.84"
"24.60000","2.04974","2816.33"
"24.70000","2.05841","2825.49"
"24.80000","2.06708","2834.76"
"24.90000","2.07564","2842.74"
"25.00000","2.08361","2850.52"
"25.10000","2.09167","2859.47"
"25.20000","2.09983","2868.53"
"25.30000","2.10820","2875.35"
"25.40000","2.11667","2883.98"
"25.50000","2.12513","2892.71"
"25.60000","2.13360","2901.85"
"25.70000","2.14207","2910.23"
"25.80000","2.15033","2861.08"
"25.90000","2.15829","2855.99"
"26.00000","2.16666","2865.6"
"26.10000","2.17523","2876.6"
"26.20000","2.18359","2885.5"
"26.30000","2.19216","2895.84"
"26.40000","2.20043","2905.76"
"26.50000","2.20849","2914.26"
"26.60000","2.21655","2923.39"
"26.70000","2.22482","2932.01"
"26.80000","2.23359","2941.62"
"26.90000","2.24195","2951.29"
"27.00000","2.25002","2959.61"
"27.10000","2.25818","2968.43"
"27.20000","2.26665","2977.6"
"27.30000","2.27481","2987.59"
"27.40000","2.28318","2994.41"
"27.50000","2.29195","3003.44"
"27.60000","2.30041","3013.15"
"27.70000","2.30838","3021.79"
"27.80000","2.31674","3031.27"
"27.90000","2.32521","3039.57"
"28.00000","2.33357","3047.52"
"28.10000","2.34194","3056.47"
"28.20000","2.35031","3065.32"
"28.30000","2.35867","3074.54"
"28.40000","2.36704","3081.57"
"28.50000","2.37520","3090.73"
"28.60000","2.38327","3099.4"
"28.70000","2.39173","3106.57"
"28.80000","2.39990","3114.79"
"28.90000","2.40856","3123.66"
"29.00000","2.41703","3132.22"
"29.10000","2.42530","3140.75"
"29.20000","2.43336","3148.58"
"29.30000","2.44142","3156.34"
"29.40000","2.44989","3163.74"
"29.50000","2.45836","3171.88"
"29.60000","2.46703","3179.94"
"29.70000","2.47529","3189.23"
"29.80000","2.48345","3195.8"
"29.90000","2.49162","3203.09"
"30.00000","2.49988","3209.96"
"30.10000","2.50825","3218.26"
"30.20000","2.51682","3226.06"
"30.30000","2.52508","3233.96"
"30.40000","2.53355","3240.71"
"30.50000","2.54202","3247.8"
"30.60000","2.55018","3254.39"
"30.70000","2.55824","3261.07"
"30.80000","2.56661","3270.3"
"30.90000","2.57498","3277.5"
"31.00000","2.58354","3284.91"
"31.10000","2.59231","3292.85"
"31.20000","2.60068","3299.43"
"31.30000","2.60844","3305.66"
"31.40000","2.61630","3312.59"
"31.50000","2.62487","3319.98"
"31.60000","2.63384","3327.77"
"31.70000","2.64200","3334.53"
"31.80000","2.65027","3341.59"
"31.90000","2.65843","3348.51"
"32.00000","2.66650","3355.37"
"32.10000","2.67476","3361.99"
"32.20000","2.68333","3368.45"
"32.30000","2.69200","3374.96"
"32.40000","2.70026","3381.79"
"32.50000","2.70832","3388.03"
"32.60000","2.71669","3394.01"
"32.70000","2.72496","3400.94"
"32.80000","2.73322","3406.87"
"32.90000","2.74159","3413.14"
"33.00000","2.75015","3419.36"
"33.10000","2.75862","3426.64"
"33.20000","2.76719","3433.14"
"33.30000","2.77505","3440.24"
"33.40000","2.78311","3443.78"
"33.50000","2.79158","3450.84"
"33.60000","2.80035","3457.24"
"33.70000","2.80882","3462.88"
"33.80000","2.81728","3468.1"
"33.90000","2.82545","3406.43"
"34.00000","2.83331","3415.29"
"34.10000","2.84137","3422.44"
"34.20000","2.85004","3430.52"
"34.30000","2.85881","3439.03"
"34.40000","2.86728","3447.64"
"34.50000","2.87534","3454.48"
"34.60000","2.88340","3460.67"
"34.70000","2.89157","3467.58"
"34.80000","2.89983","3474.94"
"34.90000","2.90830","3481.62"
"35.00000","2.91677","3488.85"
"35.10000","2.92513","3487.82"
"35.20000","2.93350","3493.4"
"35.30000","2.94176","3498.61"
"35.40000","2.94983","3504.5"
"35.50000","2.95799","3508.2"
"35.60000","2.96666","3515.36"
"35.70000","2.97502","3520.98"
"35.80000","2.98359","3524.44"
"35.90000","2.99216","3528.84"
"36.00000","3.00042","3531.09"
"36.10000","3.00819","3530.76"
"36.20000","3.01625","3535.09"
"36.30000","3.02512","3536.78"
"36.40000","3.03379","3542.7"
"36.50000","3.04185","3546.85"
"36.60000","3.05012","3551.81"
"36.70000","3.05838","3557.71"
"36.80000","3.06655","3561.67"
"36.90000","3.07491","3566.21"
"37.00000","3.08368","3570.46"
"37.10000","3.09225","3577.04"
"37.20000","3.10041","3582.09"
"37.30000","3.10838","3585.42"
"37.40000","3.11684","3591.13"
"37.50000","3.12511","3596.21"
"37.60000","3.13337","3593.23"
"37.70000","3.14194","3533.68"
"37.80000","3.15041","3542.22"
"37.90000","3.15867","3550.96"
"38.00000","3.16684","3558.64"
"38.10000","3.17490","3564.35"
"38.20000","3.18306","3571.48"
"38.30000","3.19153","3578.78"
"38.40000","3.20030","3585.17"
"38.50000","3.20877","3590.71"
"38.60000","3.21723","3597.4"
"38.70000","3.22530","3604.61"
"38.80000","3.23336","3610.61"
"38.90000","3.24152","3615.84"
"39.00000","3.25009","3621.68"
"39.10000","3.25886","3627.63"
"39.20000","3.26733","3633.25"
"39.30000","3.27539","3638.14"
"39.40000","3.28325","3644.34"
"39.50000","3.29142","3648.61"
"39.60000","3.29998","3653.82"
"39.70000","3.30835","3659.03"
"39.80000","3.31702","3664.63"
"39.90000","3.32528","3669.91"
"40.00000","3.33365","3675.11"
"40.10000","3.34171","3680.62"
"40.20000","3.34998","3683.71"
"40.30000","3.35834","3688.77"
"40.40000","3.36671","3693.54"
"40.50000","3.37497","3698.16"
"40.60000","3.38354","3703.03"
"40.70000","3.39211","3706.9"
"40.80000","3.40017","3710.16"
"40.90000","3.40814","3713.17"
"41.00000","3.41640","3716.72"
"41.10000","3.42527","3720.71"
"41.20000","3.43384","3724.17"
"41.30000","3.44190","3724.16"
"41.40000","3.45037","3726.34"
"41.50000","3.45833","3728.81"
"41.60000","3.46649","3731.2"
"41.70000","3.47496","3733.76"
"41.80000","3.48363","3737.04"
"41.90000","3.49200","3739.52"
"42.00000","3.50006","3740.83"
"42.10000","3.50832","3741.08"
"42.20000","3.51679","3743.51"
"42.30000","3.52506","3743.21"
"42.40000","3.53342","3744.31"
"42.50000","3.54199","3745.74"
"42.60000","3.55025","3746.78"
"42.70000","3.55852","3746.02"
"42.80000","3.56678","3745.51"
"42.90000","3.57495","3744.16"
"43.00000","3.58331","3743.31"
"43.10000","3.59148","3741.94"
"43.20000","3.60025","3741.18"
"43.30000","3.60882","3738.16"
"43.40000","3.61708","3734.74"
"43.50000","3.62504","3730.35"
"43.60000","3.63311","3724.12"
"43.70000","3.64137","3715.16"
"43.80000","3.65024","3701.39"
"43.90000","3.65881","3674.15"
"44.00000","3.66717","3606.11"
"44.10000","3.67544","3482.67"
"44.13600","3.67826","3194.22"
"44.14000","3.67856","2888.21"
"44.14400","3.67897","2522.71"
"44.14800","3.67947","2131.99"
"44.15000","3.67967","1936.98"