File: Data_Processing/Tensile-Data/Sequence_48.csv
General : Start date,"11/5/2024 8:28 AM"
General : End date,"11/5/2024 8:29 AM"
Specimen notes : Specimen note 1,"Day 3, black, 215, batch 19, seq 48"
Test : Rate 1,"5.00000",mm/min

Time,Extension,Load
(s),(mm),(N)
"0.00000","-0.00010","-0.05608"
"0.10000","0.00232","0.84184"
"0.20000","0.01391","19.43253"
"0.30000","0.02550","42.67344"
"0.40000","0.03407","59.31707"
"0.50000","0.04264","73.62423"
"0.60000","0.05140","88.09985"
"0.70000","0.05987","101.902"
"0.80000","0.06824","115.16"
"0.90000","0.07660","129.081"
"1.00000","0.08517","143.056"
"1.10000","0.09364","158.029"
"1.20000","0.10200","170.648"
"1.30000","0.11017","185.707"
"1.40000","0.11823","197.245"
"1.50000","0.12650","211.261"
"1.60000","0.13506","224.943"
"1.70000","0.14363","238.458"
"1.80000","0.15210","252.951"
"1.90000","0.16006","265.67"
"2.00000","0.16812","278.951"
"2.10000","0.17639","292.935"
"2.20000","0.18506","306.975"
"2.30000","0.19352","320.589"
"2.40000","0.20179","334.124"
"2.50000","0.20985","346.106"
"2.60000","0.21832","360.622"
"2.70000","0.22668","374.958"
"2.80000","0.23505","386.627"
"2.90000","0.24332","399.969"
"3.00000","0.25188","413.361"
"3.10000","0.26035","426.623"
"3.20000","0.26882","440.186"
"3.30000","0.27698","451.792"
"3.40000","0.28504","464.218"
"3.50000","0.29341","476.896"
"3.60000","0.30188","488.237"
"3.70000","0.31024","501.597"
"3.80000","0.31861","513.732"
"3.90000","0.32697","525.235"
"4.00000","0.33524","538.537"
"4.10000","0.34330","548.417"
"4.20000","0.35137","560.094"
"4.30000","0.36003","572.853"
"4.40000","0.36860","584.954"
"4.50000","0.37697","597.358"
"4.60000","0.38523","608.674"
"4.70000","0.39340","619.254"
"4.80000","0.40156","630.453"
"4.90000","0.40983","641.272"
"5.00000","0.41850","651.999"
"5.10000","0.42696","663.787"
"5.20000","0.43482","673.477"
"5.30000","0.44319","683.684"
"5.40000","0.45186","695.672"
"5.50000","0.46012","704.736"
"5.60000","0.46829","715.17"
"5.70000","0.47675","725.277"
"5.80000","0.48542","735.795"
"5.90000","0.49379","746.934"
"6.00000","0.50205","755.867"
"6.10000","0.51012","766.05"
"6.20000","0.51828","775.352"
"6.30000","0.52655","784.721"
"6.40000","0.53501","795.305"
"6.50000","0.54358","805.021"
"6.60000","0.55205","815.881"
"6.70000","0.56011","824.226"
"6.80000","0.56807","832.334"
"6.90000","0.57634","841.435"
"7.00000","0.58491","852.348"
"7.10000","0.59337","860.579"
"7.20000","0.60184","871.621"
"7.30000","0.61010","880.619"
"7.40000","0.61807","889.233"
"7.50000","0.62613","897.946"
"7.60000","0.63470","906.381"
"7.70000","0.64337","916.886"
"7.80000","0.65173","926.112"
"7.90000","0.66020","935.718"
"8.00000","0.66866","943.062"
"8.10000","0.67683","950.157"
"8.20000","0.68489","959.354"
"8.30000","0.69326","967.747"
"8.40000","0.70173","976.496"
"8.50000","0.71009","986.618"
"8.60000","0.71876","994.086"
"8.70000","0.72713","1002.23"
"8.80000","0.73509","1009.71"
"8.90000","0.74305","1019.47"
"9.00000","0.75142","1027.7"
"9.10000","0.75998","1035.67"
"9.20000","0.76845","1044.39"
"9.30000","0.77692","1052.83"
"9.40000","0.78528","1061.77"
"9.50000","0.79335","1070.21"
"9.60000","0.80131","1079.2"
"9.70000","0.80978","1086.77"
"9.80000","0.81855","1095.81"
"9.90000","0.82691","1104.91"
"10.00000","0.83508","1111.73"
"10.10000","0.84344","1121.35"
"10.20000","0.85171","1128.58"
"10.30000","0.85977","1136.07"
"10.40000","0.86824","1144.98"
"10.50000","0.87680","1152.82"
"10.60000","0.88527","1160.93"
"10.70000","0.89343","1168.91"
"10.80000","0.90170","1177.33"
"10.90000","0.90986","1184.93"
"11.00000","0.91803","1192.83"
"11.10000","0.92629","1200.6"
"11.20000","0.93516","1209.45"
"11.30000","0.94373","1217.75"
"11.40000","0.95179","1225.73"
"11.50000","0.95986","1234.57"
"11.60000","0.96832","1241.08"
"11.70000","0.97679","1249.86"
"11.80000","0.98526","1257.43"
"11.90000","0.99372","1264.27"
"12.00000","1.00229","1273.27"
"12.10000","1.01036","1280.35"
"12.20000","1.01822","1288.18"
"12.30000","1.02648","1295.73"
"12.40000","1.03515","1303.85"
"12.50000","1.04372","1312.09"
"12.60000","1.05198","1319.9"
"12.70000","1.06035","1328.14"
"12.80000","1.06851","1334.78"
"12.90000","1.07648","1343.67"
"13.00000","1.08464","1350.77"
"13.10000","1.09321","1359.73"
"13.20000","1.10178","1368.28"
"13.30000","1.11014","1374.45"
"13.40000","1.11851","1383.96"
"13.50000","1.12687","1391.03"
"13.60000","1.13473","1398.72"
"13.70000","1.14300","1407.19"
"13.80000","1.15167","1415.21"
"13.90000","1.16034","1423.21"
"14.00000","1.16870","1430.63"
"14.10000","1.17697","1438.3"
"14.20000","1.18523","1445.47"
"14.30000","1.19319","1454.09"
"14.40000","1.20156","1461.71"
"14.50000","1.21013","1470.13"
"14.60000","1.21860","1478.33"
"14.70000","1.22686","1485.27"
"14.80000","1.23513","1494.07"
"14.90000","1.24339","1499.76"
"15.00000","1.25176","1508.64"
"15.10000","1.25982","1515.64"
"15.20000","1.26829","1522.97"
"15.30000","1.27695","1531.72"
"15.40000","1.28512","1538.78"
"15.50000","1.29348","1547.39"
"15.60000","1.30175","1554.81"
"15.70000","1.30991","1562.48"
"15.80000","1.31818","1569.7"
"15.90000","1.32665","1577.2"
"16.00000","1.33521","1585.72"
"16.10000","1.34358","1592.65"
"16.20000","1.35184","1599.9"
"16.30000","1.36001","1608.72"
"16.40000","1.36827","1615.42"
"16.50000","1.37674","1624.37"
"16.60000","1.38521","1632.05"
"16.70000","1.39357","1639.77"
"16.80000","1.40184","1647.68"
"16.90000","1.41010","1656.74"
"17.00000","1.41817","1662.94"
"17.10000","1.42673","1671.43"
"17.20000","1.43530","1678.66"
"17.30000","1.44347","1687.46"
"17.40000","1.45193","1695.14"
"17.50000","1.46030","1702.9"
"17.60000","1.46856","1710.79"
"17.70000","1.47653","1717.06"
"17.80000","1.48459","1723.83"
"17.90000","1.49306","1733.61"
"18.00000","1.50162","1740.77"
"18.10000","1.51009","1749.19"
"18.20000","1.51846","1757.83"
"18.30000","1.52662","1765.08"
"18.40000","1.53458","1772.84"
"18.50000","1.54295","1780.99"
"18.60000","1.55172","1789.37"
"18.70000","1.56029","1796.84"
"18.80000","1.56855","1805.02"
"18.90000","1.57682","1812.73"
"19.00000","1.58508","1821.17"
"19.10000","1.59314","1828.16"
"19.20000","1.60151","1837.16"
"19.30000","1.61018","1845.67"
"19.40000","1.61854","1852.84"
"19.50000","1.62671","1862.22"
"19.60000","1.63518","1869.31"
"19.70000","1.64344","1876.79"
"19.80000","1.65160","1884.81"
"19.90000","1.65987","1892.33"
"20.00000","1.66844","1901.03"
"20.10000","1.67690","1908.05"
"20.20000","1.68517","1916.67"
"20.30000","1.69333","1924.15"
"20.40000","1.70160","1931.2"
"20.50000","1.70996","1941.17"
"20.60000","1.71813","1947.71"
"20.70000","1.72670","1956.02"
"20.80000","1.73536","1964.16"
"20.90000","1.74373","1972.37"
"21.00000","1.75179","1979.65"
"21.10000","1.75986","1987.58"
"21.20000","1.76832","1996.47"
"21.30000","1.77689","2004.64"
"21.40000","1.78516","2012.71"
"21.50000","1.79362","2020"
"21.60000","1.80199","2029.64"
"21.70000","1.80995","2036.52"
"21.80000","1.81801","2045.24"
"21.90000","1.82658","2054.11"
"22.00000","1.83505","2061.64"
"22.10000","1.84341","2070.9"
"22.20000","1.85188","2079.66"
"22.30000","1.86035","2087.57"
"22.40000","1.86841","2096.63"
"22.50000","1.87637","2104.35"
"22.60000","1.88474","2113.12"
"22.70000","1.89341","2120.45"
"22.80000","1.90198","2129.34"
"22.90000","1.91034","2137.94"
"23.00000","1.91871","2146.11"
"23.10000","1.92667","2153.71"
"23.20000","1.93463","2163.38"
"23.30000","1.94320","2170.86"
"23.40000","1.95197","2179.05"
"23.50000","1.96034","2187.85"
"23.60000","1.96860","2196"
"23.70000","1.97676","2204.32"
"23.80000","1.98493","2212.69"
"23.90000","1.99299","2220.09"
"24.00000","2.00166","2228.75"
"24.10000","2.01013","2237.15"
"24.20000","2.01839","2246.72"
"24.30000","2.02676","2254.16"
"24.40000","2.03523","2262.94"
"24.50000","2.04339","2272.04"
"24.60000","2.05165","2278.47"
"24.70000","2.06002","2287.58"
"24.80000","2.06869","2295.04"
"24.90000","2.07705","2304.1"
"25.00000","2.08532","2311.58"
"25.10000","2.09358","2320.96"
"25.20000","2.10155","2328.38"
"25.30000","2.10981","2337.02"
"25.40000","2.11828","2344.13"
"25.50000","2.12695","2352.66"
"25.60000","2.13551","2361.41"
"25.70000","2.14368","2368.41"
"25.80000","2.15154","2377.83"
"25.90000","2.15981","2385.2"
"26.00000","2.16827","2392.97"
"26.10000","2.17694","2402.27"
"26.20000","2.18541","2408.92"
"26.30000","2.19347","2417.61"
"26.40000","2.20164","2425.49"
"26.50000","2.20970","2433.4"
"26.60000","2.21796","2440.95"
"26.70000","2.22663","2448.84"
"26.80000","2.23510","2456.75"
"26.90000","2.24346","2466.52"
"27.00000","2.25193","2474.08"
"27.10000","2.26020","2480.93"
"27.20000","2.26836","2490.64"
"27.30000","2.27642","2497.11"
"27.40000","2.28499","2505.77"
"27.50000","2.29356","2514.61"
"27.60000","2.30193","2522.23"
"27.70000","2.31039","2530"
"27.80000","2.31856","2538.72"
"27.90000","2.32642","2546.82"
"28.00000","2.33488","2553.82"
"28.10000","2.34355","2562.28"
"28.20000","2.35222","2570.17"
"28.30000","2.36039","2577.68"
"28.40000","2.36855","2586.31"
"28.50000","2.37681","2594.2"
"28.60000","2.38488","2602.99"
"28.70000","2.39304","2610.03"
"28.80000","2.40161","2618.66"
"28.90000","2.40998","2626.2"
"29.00000","2.41814","2634.98"
"29.10000","2.42651","2642.17"
"29.20000","2.43497","2651.13"
"29.30000","2.44314","2659.11"
"29.40000","2.45130","2665.41"
"29.50000","2.45997","2676.02"
"29.60000","2.46854","2683.66"
"29.70000","2.47680","2691.4"
"29.80000","2.48517","2700.12"
"29.90000","2.49343","2707.75"
"30.00000","2.50160","2715.38"
"30.10000","2.50986","2722.71"
"30.20000","2.51843","2732.05"
"30.30000","2.52700","2739.96"
"30.40000","2.53516","2747.14"
"30.50000","2.54333","2755.96"
"30.60000","2.55149","2762.29"
"30.70000","2.55996","2771.17"
"30.80000","2.56842","2778.86"
"30.90000","2.57699","2787.81"
"31.00000","2.58536","2794.31"
"31.10000","2.59372","2802.41"
"31.20000","2.60169","2811.03"
"31.30000","2.60975","2818.22"
"31.40000","2.61801","2825.95"
"31.50000","2.62658","2834.96"
"31.60000","2.63535","2843.55"
"31.70000","2.64382","2850.64"
"31.80000","2.65218","2858.54"
"31.90000","2.66035","2867.14"
"32.00000","2.66821","2873.59"
"32.10000","2.67647","2882.97"
"32.20000","2.68504","2891.88"
"32.30000","2.69361","2898.79"
"32.40000","2.70187","2907.39"
"32.50000","2.71024","2914.01"
"32.60000","2.71840","2923"
"32.70000","2.72627","2930.49"
"32.80000","2.73463","2938.83"
"32.90000","2.74350","2947.69"
"33.00000","2.75197","2955.75"
"33.10000","2.76023","2962.76"
"33.20000","2.76840","2971.26"
"33.30000","2.77666","2978.1"
"33.40000","2.78483","2985.69"
"33.50000","2.79329","2994.96"
"33.60000","2.80176","3003.91"
"33.70000","2.81023","3011.23"
"33.80000","2.81869","3019.33"
"33.90000","2.82706","3027.54"
"34.00000","2.83522","3035.17"
"34.10000","2.84319","3042.62"
"34.20000","2.85145","3051.86"
"34.30000","2.86012","3059.77"
"34.40000","2.86869","3067.52"
"34.50000","2.87695","3076.4"
"34.60000","2.88512","3083.93"
"34.70000","2.89318","3092.73"
"34.80000","2.90124","3100.32"
"34.90000","2.90971","3109"
"35.00000","2.91838","3117.49"
"35.10000","2.92695","3125.92"
"35.20000","2.93521","3133.3"
"35.30000","2.94338","3142.41"
"35.40000","2.95164","3148.7"
"35.50000","2.95991","3157.79"
"35.60000","2.96847","3166.9"
"35.70000","2.97704","3173.08"
"35.80000","2.98520","3181.41"
"35.90000","2.99347","3189.67"
"36.00000","3.00173","3197.37"
"36.10000","3.00990","3204.96"
"36.20000","3.01816","3213.39"
"36.30000","3.02673","3221.87"
"36.40000","3.03520","3229.23"
"36.50000","3.04367","3238.13"
"36.60000","3.05203","3245.43"
"36.70000","3.05999","3253.41"
"36.80000","3.06816","3261"
"36.90000","3.07642","3269.55"
"37.00000","3.08499","3278.01"
"37.10000","3.09366","3286.22"
"37.20000","3.10223","3294.3"
"37.30000","3.11019","3301.05"
"37.40000","3.11805","3310.48"
"37.50000","3.12622","3316.6"
"37.60000","3.13498","3326.75"
"37.70000","3.14385","3334.38"
"37.80000","3.15212","3341.43"
"37.90000","3.16038","3350.24"
"38.00000","3.16855","3356.68"
"38.10000","3.17661","3365.37"
"38.20000","3.18478","3372.51"
"38.30000","3.19334","3381.79"
"38.40000","3.20191","3389.15"
"38.50000","3.21018","3397.19"
"38.60000","3.21844","3405.38"
"38.70000","3.22701","3411.93"
"38.80000","3.23507","3420.06"
"38.90000","3.24314","3427.52"
"39.00000","3.25160","3436.08"
"39.10000","3.26037","3444.2"
"39.20000","3.26874","3452.14"
"39.30000","3.27690","3459.5"
"39.40000","3.28507","3466.85"
"39.50000","3.29323","3475.44"
"39.60000","3.30160","3482.81"
"39.70000","3.31016","3491.82"
"39.80000","3.31873","3497.78"
"39.90000","3.32710","3506.61"
"40.00000","3.33486","3514.78"
"40.10000","3.34292","3520.86"
"40.20000","3.35129","3529.03"
"40.30000","3.35996","3537.07"
"40.40000","3.36842","3544.73"
"40.50000","3.37659","3551.98"
"40.60000","3.38505","3559.7"
"40.70000","3.39332","3568.09"
"40.80000","3.40148","3575.52"
"40.90000","3.40995","3583.02"
"41.00000","3.41842","3589.9"
"41.10000","3.42688","3598.05"
"41.20000","3.43535","3605.12"
"41.30000","3.44372","3612.33"
"41.40000","3.45188","3619.78"
"41.50000","3.45994","3628.17"
"41.60000","3.46811","3634.19"
"41.70000","3.47667","3642.68"
"41.80000","3.48524","3650.62"
"41.90000","3.49351","3656.7"
"42.00000","3.50197","3665.28"
"42.10000","3.51014","3673.28"
"42.20000","3.51820","3680.26"
"42.30000","3.52657","3687.58"
"42.40000","3.53524","3695.95"
"42.50000","3.54350","3702.77"
"42.60000","3.55187","3709.64"
"42.70000","3.56013","3718.06"
"42.80000","3.56850","3724.05"
"42.90000","3.57656","3731.73"
"43.00000","3.58483","3737.09"
"43.10000","3.59339","3746.62"
"43.20000","3.60166","3753.6"
"43.30000","3.61002","3760.37"
"43.40000","3.61849","3767.42"
"43.50000","3.62696","3774.05"
"43.60000","3.63502","3781.9"
"43.70000","3.64329","3787.82"
"43.80000","3.65196","3795.48"
"43.90000","3.66042","3802.21"
"44.00000","3.66859","3808.65"
"44.10000","3.67695","3816.39"
"44.20000","3.68512","3823.09"
"44.30000","3.69318","3829.48"
"44.40000","3.70155","3836.7"
"44.50000","3.71021","3843.85"
"44.60000","3.71878","3850.02"
"44.70000","3.72695","3857.13"
"44.80000","3.73501","3863.18"
"44.90000","3.74327","3870.25"
"45.00000","3.75174","3877.26"
"45.10000","3.76011","3884.05"
"45.20000","3.76847","3891.68"
"45.30000","3.77684","3897.01"
"45.40000","3.78510","3904.42"
"45.50000","3.79317","3910.98"
"45.60000","3.80123","3916.99"
"45.70000","3.80990","3923.88"
"45.80000","3.81847","3931"
"45.90000","3.82663","3938.06"
"46.00000","3.83520","3943.02"
"46.10000","3.84366","3949.81"
"46.20000","3.85183","3956.51"
"46.30000","3.85979","3961.78"
"46.40000","3.86806","3967.7"
"46.50000","3.87672","3974.33"
"46.60000","3.88519","3981.01"
"46.70000","3.89366","3985.53"
"46.80000","3.90202","3992.42"
"46.90000","3.90999","3997.76"
"47.00000","3.91805","4003.77"
"47.10000","3.92652","4008.25"
"47.20000","3.93518","4014.99"
"47.30000","3.94365","4021.54"
"47.40000","3.95192","4026.53"
"47.50000","3.96018","4032.48"
"47.60000","3.96825","4037.56"
"47.70000","3.97641","4043.19"
"47.80000","3.98488","4048.65"
"47.90000","3.99344","4054.04"
"48.00000","4.00191","4059.4"
"48.10000","4.01018","4064.75"
"48.20000","4.01854","4070.37"
"48.30000","4.02681","4074.56"
"48.40000","4.03497","4079.24"
"48.50000","4.04324","4084.25"
"48.60000","4.05180","4089.28"
"48.70000","4.06027","4094.18"
"48.80000","4.06853","4098.99"
"48.90000","4.07680","4101.1"
"49.00000","4.08486","4106.84"
"49.10000","4.09313","4111.01"
"49.20000","4.10170","4114.94"
"49.30000","4.11016","4118.86"
"49.40000","4.11883","4122.33"
"49.50000","4.12700","4126.11"
"49.60000","4.13496","4128.35"
"49.70000","4.14322","4130.96"
"49.80000","4.15169","4133.96"
"49.90000","4.16016","4135.88"
"50.00000","4.16872","4138.54"
"50.10000","4.17719","4141"
"50.20000","4.18535","4142.26"
"50.30000","4.19332","4143.61"
"50.40000","4.20148","4142.65"
"50.50000","4.21005","4144.14"
"50.60000","4.21852","4143.84"
"50.70000","4.22688","4144.15"
"50.80000","4.23535","4143.03"
"50.90000","4.24361","4141.9"
"51.00000","4.25158","4140.91"
"51.10000","4.25954","4138.63"
"51.20000","4.26801","4135.73"
"51.30000","4.27657","4133.71"
"51.40000","4.28514","4131.49"
"51.50000","4.29361","4127.24"
"51.60000","4.30177","4122.41"
"51.70000","4.30973","4116.44"
"51.80000","4.31800","4111.36"
"51.90000","4.32677","4104.65"
"52.00000","4.33544","4096.97"
"52.10000","4.34370","4087.26"
"52.20000","4.35197","4077.53"
"52.30000","4.36023","4066.05"
"52.40000","4.36819","4051.76"
"52.50000","4.37656","4037.01"
"52.60000","4.38513","4016.4"
"52.70000","4.39359","3989.36"
"52.80000","4.40186","3947.68"
"52.90000","4.41023","3854.21"
"52.91800","4.41184","3461.89"
"52.92200","4.41224","3089.87"
"52.92600","4.41264","2667.55"
"52.93000","4.41305","2225.07"