File: Data_Processing/Tensile-Data/Sequence_47.csv
General : Start date,"11/5/2024 8:27 AM"
General : End date,"11/5/2024 8:27 AM"
Specimen notes : Specimen note 1,"Day 3, black, 230, batch 16, seq 47"
Test : Rate 1,"5.00000",mm/min

Time,Extension,Load
(s),(mm),(N)
"0.00000","0.00000","0.13510"
"0.10000","0.00141","1.09335"
"0.20000","0.01089","13.69400"
"0.30000","0.02419","40.38633"
"0.40000","0.03286","57.90125"
"0.50000","0.04072","71.65210"
"0.60000","0.04959","86.68402"
"0.70000","0.05836","101.106"
"0.80000","0.06673","115.437"
"0.90000","0.07529","130.508"
"1.00000","0.08376","143.291"
"1.10000","0.09213","159.407"
"1.20000","0.10019","173.465"
"1.30000","0.10845","186.699"
"1.40000","0.11672","201.733"
"1.50000","0.12529","215.094"
"1.60000","0.13395","230.347"
"1.70000","0.14232","244.393"
"1.80000","0.15018","257.126"
"1.90000","0.15835","272.218"
"2.00000","0.16661","284.225"
"2.10000","0.17518","298.591"
"2.20000","0.18365","313.471"
"2.30000","0.19201","326.252"
"2.40000","0.19997","339.814"
"2.50000","0.20854","354.278"
"2.60000","0.21681","367.939"
"2.70000","0.22517","381.144"
"2.80000","0.23354","396.151"
"2.90000","0.24201","407.934"
"3.00000","0.25057","421.76"
"3.10000","0.25884","435.327"
"3.20000","0.26710","447.146"
"3.30000","0.27517","460.881"
"3.40000","0.28353","473.46"
"3.50000","0.29200","486"
"3.60000","0.30037","499.139"
"3.70000","0.30863","512.28"
"3.80000","0.31710","526.254"
"3.90000","0.32536","539.241"
"4.00000","0.33332","550.344"
"4.10000","0.34159","564.1"
"4.20000","0.35016","576.688"
"4.30000","0.35872","590.006"
"4.40000","0.36699","603.734"
"4.50000","0.37536","615.27"
"4.60000","0.38352","628.34"
"4.70000","0.39168","641.024"
"4.80000","0.40005","653.088"
"4.90000","0.40872","665.977"
"5.00000","0.41708","679.049"
"5.10000","0.42505","689.964"
"5.20000","0.43331","702.404"
"5.30000","0.44198","714.812"
"5.40000","0.45035","725.069"
"5.50000","0.45851","737.46"
"5.60000","0.46698","749.642"
"5.70000","0.47565","762.78"
"5.80000","0.48391","775.39"
"5.90000","0.49218","786.029"
"6.00000","0.50024","797.605"
"6.10000","0.50840","808.581"
"6.20000","0.51667","820.692"
"6.30000","0.52524","834.067"
"6.40000","0.53380","844.876"
"6.50000","0.54217","856.405"
"6.60000","0.55013","867.08"
"6.70000","0.55820","877.184"
"6.80000","0.56636","888.111"
"6.90000","0.57503","899.723"
"7.00000","0.58370","910.378"
"7.10000","0.59206","920.591"
"7.20000","0.60023","933.068"
"7.30000","0.60839","942.005"
"7.40000","0.61635","952.766"
"7.50000","0.62482","963.041"
"7.60000","0.63349","974.325"
"7.70000","0.64185","985.866"
"7.80000","0.65022","995.668"
"7.90000","0.65869","1005.75"
"8.00000","0.66695","1016.17"
"8.10000","0.67512","1026.06"
"8.20000","0.68348","1037.03"
"8.30000","0.69185","1046.44"
"8.40000","0.70031","1056.56"
"8.50000","0.70888","1067.02"
"8.60000","0.71735","1075.78"
"8.70000","0.72531","1084.36"
"8.80000","0.73327","1092.83"
"8.90000","0.74164","1101.85"
"9.00000","0.75031","1111.16"
"9.10000","0.75867","1119.8"
"9.20000","0.76704","1128.75"
"9.30000","0.77530","1137.15"
"9.40000","0.78337","1146.46"
"9.50000","0.79143","1154.98"
"9.60000","0.80000","1165.03"
"9.70000","0.80867","1173.58"
"9.80000","0.81703","1184.08"
"9.90000","0.82520","1191.87"
"10.00000","0.83356","1201.24"
"10.10000","0.84183","1210.81"
"10.20000","0.84999","1219.33"
"10.30000","0.85846","1228.69"
"10.40000","0.86693","1237.89"
"10.50000","0.87529","1247.09"
"10.60000","0.88356","1255.63"
"10.70000","0.89192","1265.8"
"10.80000","0.89999","1273.98"
"10.90000","0.90815","1283.19"
"11.00000","0.91642","1292.51"
"11.10000","0.92518","1300.79"
"11.20000","0.93395","1311.43"
"11.30000","0.94192","1319.65"
"11.40000","0.94998","1328.33"
"11.50000","0.95845","1336.83"
"11.60000","0.96691","1345.64"
"11.70000","0.97538","1354.7"
"11.80000","0.98395","1363.66"
"11.90000","0.99241","1372.2"
"12.00000","1.00048","1382.14"
"12.10000","1.00844","1390.49"
"12.20000","1.01660","1398.7"
"12.30000","1.02517","1407.93"
"12.40000","1.03374","1417.03"
"12.50000","1.04211","1426.98"
"12.60000","1.05057","1434.99"
"12.70000","1.05874","1444.13"
"12.80000","1.06670","1451.89"
"12.90000","1.07486","1461.72"
"13.00000","1.08333","1470.04"
"13.10000","1.09190","1478.72"
"13.20000","1.10026","1488.53"
"13.30000","1.10863","1496.3"
"13.40000","1.11689","1506.24"
"13.50000","1.12486","1512.28"
"13.60000","1.13312","1521.17"
"13.70000","1.14179","1528.51"
"13.80000","1.15046","1536.6"
"13.90000","1.15893","1544.45"
"14.00000","1.16719","1553.36"
"14.10000","1.17535","1560.76"
"14.20000","1.18332","1569.01"
"14.30000","1.19158","1576.23"
"14.40000","1.20025","1586.63"
"14.50000","1.20872","1596.18"
"14.60000","1.21688","1602.43"
"14.70000","1.22515","1612.98"
"14.80000","1.23361","1620.73"
"14.90000","1.24188","1628.79"
"15.00000","1.24994","1636.68"
"15.10000","1.25851","1645.07"
"15.20000","1.26708","1653.6"
"15.30000","1.27524","1660.96"
"15.40000","1.28361","1669.49"
"15.50000","1.29177","1677.17"
"15.60000","1.30004","1684.75"
"15.70000","1.30830","1692.9"
"15.80000","1.31687","1701.76"
"15.90000","1.32554","1709.18"
"16.00000","1.33380","1718.33"
"16.10000","1.34197","1726.67"
"16.20000","1.35003","1733.35"
"16.30000","1.35840","1741.99"
"16.40000","1.36686","1750.61"
"16.50000","1.37533","1758.73"
"16.60000","1.38370","1766.92"
"16.70000","1.39196","1775.89"
"16.80000","1.40023","1783.37"
"16.90000","1.40829","1791.74"
"17.00000","1.41686","1799.59"
"17.10000","1.42542","1807.78"
"17.20000","1.43369","1817.25"
"17.30000","1.44205","1824.8"
"17.40000","1.45042","1833.69"
"17.50000","1.45858","1840.54"
"17.60000","1.46665","1848.08"
"17.70000","1.47471","1856.66"
"17.80000","1.48318","1865.05"
"17.90000","1.49164","1873.2"
"18.00000","1.50011","1881.84"
"18.10000","1.50848","1889.46"
"18.20000","1.51664","1898.77"
"18.30000","1.52471","1906.19"
"18.40000","1.53317","1914.18"
"18.50000","1.54204","1923.61"
"18.60000","1.55041","1930.5"
"18.70000","1.55867","1939.76"
"18.80000","1.56704","1948.03"
"18.90000","1.57520","1955.01"
"19.00000","1.58327","1963.13"
"19.10000","1.59163","1971.73"
"19.20000","1.60030","1981.16"
"19.30000","1.60867","1989"
"19.40000","1.61683","1998.71"
"19.50000","1.62530","2006.65"
"19.60000","1.63366","2015.28"
"19.70000","1.64183","2022.39"
"19.80000","1.64999","2032.04"
"19.90000","1.65856","2040.6"
"20.00000","1.66713","2049.39"
"20.10000","1.67529","2058.31"
"20.20000","1.68346","2065.77"
"20.30000","1.69172","2074.15"
"20.40000","1.70009","2083.38"
"20.50000","1.70835","2091.55"
"20.60000","1.71692","2099.71"
"20.70000","1.72559","2109.02"
"20.80000","1.73385","2116.01"
"20.90000","1.74181","2124.4"
"21.00000","1.74998","2132.99"
"21.10000","1.75845","2139.82"
"21.20000","1.76701","2149.06"
"21.30000","1.77518","2156.46"
"21.40000","1.78364","2165.25"
"21.50000","1.79211","2172.58"
"21.60000","1.80017","2180.43"
"21.70000","1.80824","2187.4"
"21.80000","1.81670","2196.38"
"21.90000","1.82507","2204.46"
"22.00000","1.83354","2213.57"
"22.10000","1.84200","2221.7"
"22.20000","1.85047","2229.95"
"22.30000","1.85853","2237.87"
"22.40000","1.86650","2244.95"
"22.50000","1.87486","2254.65"
"22.60000","1.88363","2263.93"
"22.70000","1.89210","2272.39"
"22.80000","1.90056","2280.4"
"22.90000","1.90883","2288.44"
"23.00000","1.91679","2296.42"
"23.10000","1.92486","2304.48"
"23.20000","1.93342","2313.01"
"23.30000","1.94209","2321.44"
"23.40000","1.95036","2330.04"
"23.50000","1.95852","2337.29"
"23.60000","1.96679","2345.98"
"23.70000","1.97485","2353.88"
"23.80000","1.98301","2361.82"
"23.90000","1.99178","2370.58"
"24.00000","2.00055","2379.23"
"24.10000","2.00872","2388.85"
"24.20000","2.01688","2396.27"
"24.30000","2.02545","2404.82"
"24.40000","2.03351","2413.91"
"24.50000","2.04168","2421.11"
"24.60000","2.05014","2430.57"
"24.70000","2.05891","2439.59"
"24.80000","2.06738","2448.43"
"24.90000","2.07554","2456.41"
"25.00000","2.08371","2464.23"
"25.10000","2.09167","2471.29"
"25.20000","2.10004","2480.27"
"25.30000","2.10850","2489.33"
"25.40000","2.11717","2497.71"
"25.50000","2.12564","2506.94"
"25.60000","2.13370","2514.28"
"25.70000","2.14166","2522.44"
"25.80000","2.14993","2529.8"
"25.90000","2.15850","2538.74"
"26.00000","2.16696","2546.7"
"26.10000","2.17533","2555.63"
"26.20000","2.18359","2564.09"
"26.30000","2.19176","2572.17"
"26.40000","2.19992","2579.11"
"26.50000","2.20819","2587.28"
"26.60000","2.21675","2596.51"
"26.70000","2.22512","2604.25"
"26.80000","2.23359","2614.3"
"26.90000","2.24205","2621.99"
"27.00000","2.25032","2629.39"
"27.10000","2.25838","2638.34"
"27.20000","2.26655","2645.03"
"27.30000","2.27511","2654.95"
"27.40000","2.28368","2663.68"
"27.50000","2.29205","2672.3"
"27.60000","2.30051","2680.46"
"27.70000","2.30868","2688.9"
"27.80000","2.31654","2696.81"
"27.90000","2.32501","2706.04"
"28.00000","2.33378","2713.8"
"28.10000","2.34244","2723.12"
"28.20000","2.35061","2731.14"
"28.30000","2.35867","2737.12"
"28.40000","2.36694","2746.67"
"28.50000","2.37510","2752.91"
"28.60000","2.38327","2761.15"
"28.70000","2.39183","2769.88"
"28.80000","2.40020","2777.26"
"28.90000","2.40826","2785.92"
"29.00000","2.41663","2794.37"
"29.10000","2.42509","2803.24"
"29.20000","2.43326","2811.44"
"29.30000","2.44152","2819.68"
"29.40000","2.45009","2827.78"
"29.50000","2.45866","2836.73"
"29.60000","2.46692","2844.39"
"29.70000","2.47529","2852.94"
"29.80000","2.48345","2861.14"
"29.90000","2.49162","2869.15"
"30.00000","2.49998","2878.88"
"30.10000","2.50865","2885.58"
"30.20000","2.51732","2896.36"
"30.30000","2.52549","2904.16"
"30.40000","2.53355","2909.83"
"30.50000","2.54171","2919.83"
"30.60000","2.55018","2926.91"
"30.70000","2.55844","2935.22"
"30.80000","2.56691","2943.79"
"30.90000","2.57528","2951.92"
"31.00000","2.58374","2959.66"
"31.10000","2.59201","2968.4"
"31.20000","2.59997","2975.97"
"31.30000","2.60824","2983.34"
"31.40000","2.61680","2992.84"
"31.50000","2.62547","3001.04"
"31.60000","2.63384","3008.86"
"31.70000","2.64231","3016.54"
"31.80000","2.65037","3025.42"
"31.90000","2.65833","3032.06"
"32.00000","2.66650","3040.05"
"32.10000","2.67526","3050.57"
"32.20000","2.68373","3057.06"
"32.30000","2.69200","3066.78"
"32.40000","2.70036","3074.43"
"32.50000","2.70843","3082.33"
"32.60000","2.71639","3090.58"
"32.70000","2.72486","3098.04"
"32.80000","2.73372","3106.83"
"32.90000","2.74209","3115.04"
"33.00000","2.75036","3123.35"
"33.10000","2.75862","3131.06"
"33.20000","2.76679","3140.1"
"33.30000","2.77505","3147.52"
"33.40000","2.78342","3155.31"
"33.50000","2.79188","3163.44"
"33.60000","2.80035","3172.04"
"33.70000","2.80872","3179.9"
"33.80000","2.81708","3186.78"
"33.90000","2.82535","3195.8"
"34.00000","2.83341","3202.01"
"34.10000","2.84157","3210.09"
"34.20000","2.85034","3219.32"
"34.30000","2.85891","3226.42"
"34.40000","2.86707","3234.97"
"34.50000","2.87524","3242.45"
"34.60000","2.88320","3250.47"
"34.70000","2.89127","3257.66"
"34.80000","2.89993","3266.62"
"34.90000","2.90860","3276.15"
"35.00000","2.91727","3283.53"
"35.10000","2.92543","3292.25"
"35.20000","2.93360","3299.02"
"35.30000","2.94176","3306.92"
"35.40000","2.95013","3314.94"
"35.50000","2.95860","3322.54"
"35.60000","2.96706","3330.16"
"35.70000","2.97533","3339.2"
"35.80000","2.98359","3346.25"
"35.90000","2.99176","3353.81"
"36.00000","3.00002","3362.04"
"36.10000","3.00829","3369.09"
"36.20000","3.01695","3377.41"
"36.30000","3.02552","3385.78"
"36.40000","3.03389","3392.83"
"36.50000","3.04215","3401.23"
"36.60000","3.05032","3408.67"
"36.70000","3.05818","3414.8"
"36.80000","3.06665","3423.54"
"36.90000","3.07531","3432.94"
"37.00000","3.08378","3439.74"
"37.10000","3.09225","3447.69"
"37.20000","3.10031","3455.32"
"37.30000","3.10827","3461.58"
"37.40000","3.11644","3470.06"
"37.50000","3.12521","3477.53"
"37.60000","3.13377","3486.22"
"37.70000","3.14214","3493.18"
"37.80000","3.15051","3501.38"
"37.90000","3.15867","3507.9"
"38.00000","3.16663","3514.59"
"38.10000","3.17490","3522.5"
"38.20000","3.18347","3529.5"
"38.30000","3.19203","3538.68"
"38.40000","3.20030","3546.24"
"38.50000","3.20866","3553.21"
"38.60000","3.21723","3562.01"
"38.70000","3.22519","3568.42"
"38.80000","3.23326","3576.06"
"38.90000","3.24172","3583.43"
"39.00000","3.25049","3593.27"
"39.10000","3.25886","3600.19"
"39.20000","3.26702","3607.04"
"39.30000","3.27519","3614.87"
"39.40000","3.28335","3620.96"
"39.50000","3.29162","3629.56"
"39.60000","3.30018","3636.16"
"39.70000","3.30875","3644.16"
"39.80000","3.31712","3651.03"
"39.90000","3.32498","3658.91"
"40.00000","3.33304","3664.66"
"40.10000","3.34151","3672.33"
"40.20000","3.34998","3680.72"
"40.30000","3.35865","3687.61"
"40.40000","3.36701","3695.92"
"40.50000","3.37528","3703.74"
"40.60000","3.38354","3710.16"
"40.70000","3.39171","3716.91"
"40.80000","3.40017","3724.05"
"40.90000","3.40874","3731.48"
"41.00000","3.41701","3737.58"
"41.10000","3.42547","3745.52"
"41.20000","3.43384","3752.12"
"41.30000","3.44210","3759.19"
"41.40000","3.45017","3765.64"
"41.50000","3.45843","3770.59"
"41.60000","3.46680","3776.93"
"41.70000","3.47536","3784.51"
"41.80000","3.48373","3791.31"
"41.90000","3.49210","3796.51"
"42.00000","3.50026","3803.54"
"42.10000","3.50832","3809.21"
"42.20000","3.51669","3814.39"
"42.30000","3.52536","3821.42"
"42.40000","3.53362","3826.39"
"42.50000","3.54209","3831.8"
"42.60000","3.55025","3837.37"
"42.70000","3.55862","3842.04"
"42.80000","3.56668","3847.6"
"42.90000","3.57505","3852.64"
"43.00000","3.58352","3856.1"
"43.10000","3.59178","3862.22"
"43.20000","3.60005","3866.16"
"43.30000","3.60861","3871.27"
"43.40000","3.61698","3875.76"
"43.50000","3.62514","3879.84"
"43.60000","3.63341","3882.97"
"43.70000","3.64198","3886.46"
"43.80000","3.65054","3890.95"
"43.90000","3.65881","3893.54"
"44.00000","3.66707","3894.71"
"44.10000","3.67514","3897.47"
"44.20000","3.68320","3897.77"
"44.30000","3.69157","3898.43"
"44.40000","3.70034","3899.92"
"44.50000","3.70890","3899.72"
"44.60000","3.71707","3899.29"
"44.70000","3.72523","3897.96"
"44.80000","3.73340","3892.87"
"44.90000","3.74176","3889.91"
"45.00000","3.75033","3884.64"
"45.10000","3.75870","3875.98"
"45.20000","3.76706","3866.28"
"45.30000","3.77523","3851.17"
"45.40000","3.78329","3829.16"
"45.50000","3.79145","3797.2"
"45.60000","3.80002","3740.94"
"45.65400","3.80476","3396.81"
"45.65800","3.80506","3059.92"
"45.66200","3.80546","2663.69"
"45.66600","3.80597","2240.5"