File: Data_Processing/Tensile-Data/Sequence_17.csv
General : Start date,"10/22/2024 9:59 AM"
General : End date,"10/22/2024 10:00 AM"
Specimen notes : Specimen note 1,"purple, 200, batch 9, seq 17"
Test : Rate 1,"5.00000",mm/min

Time,Extension,Load
(s),(mm),(N)
"0.00000","-0.05332","5.82368"
"0.10000","-0.05120","6.80778"
"0.20000","-0.03951","25.53403"
"0.30000","-0.02842","48.89011"
"0.40000","-0.02016","64.83092"
"0.50000","-0.01149","80.36273"
"0.60000","-0.00292","95.89141"
"0.70000","0.00504","110.642"
"0.80000","0.01320","125.015"
"0.90000","0.02157","140.778"
"1.00000","0.03024","154.094"
"1.10000","0.03881","166.581"
"1.20000","0.04727","171.911"
"1.30000","0.05544","183.768"
"1.40000","0.06350","197.798"
"1.50000","0.07156","211.222"
"1.60000","0.07993","225.535"
"1.70000","0.08840","238.642"
"1.80000","0.09706","252.234"
"1.90000","0.10543","267.089"
"2.00000","0.11359","280.519"
"2.10000","0.12206","294.686"
"2.20000","0.13002","308.315"
"2.30000","0.13819","321.639"
"2.40000","0.14676","337.089"
"2.50000","0.15552","351.577"
"2.60000","0.16389","365.413"
"2.70000","0.17185","380.051"
"2.80000","0.17992","393.706"
"2.90000","0.18828","407.567"
"3.00000","0.19665","422.331"
"3.10000","0.20522","435.581"
"3.20000","0.21348","450.225"
"3.30000","0.22205","464.834"
"3.40000","0.23031","479.81"
"3.50000","0.23828","492.614"
"3.60000","0.24654","506.771"
"3.70000","0.25501","521.238"
"3.80000","0.26358","536.203"
"3.90000","0.27204","550.157"
"4.00000","0.28041","565.13"
"4.10000","0.28857","579.011"
"4.20000","0.29674","592.525"
"4.30000","0.30500","607.515"
"4.40000","0.31327","621.42"
"4.50000","0.32183","635.626"
"4.60000","0.33030","650.478"
"4.70000","0.33867","664.353"
"4.80000","0.34693","678.175"
"4.90000","0.35489","692.267"
"5.00000","0.36316","706.345"
"5.10000","0.37163","720.553"
"5.20000","0.38050","734.744"
"5.30000","0.38876","748.712"
"5.40000","0.39703","763.448"
"5.50000","0.40519","777.306"
"5.60000","0.41325","789.844"
"5.70000","0.42162","804.508"
"5.80000","0.43019","818.084"
"5.90000","0.43865","833.368"
"6.00000","0.44702","847.937"
"6.10000","0.45518","861.556"
"6.20000","0.46335","874.643"
"6.30000","0.47141","889.091"
"6.40000","0.47978","902.147"
"6.50000","0.48845","917.011"
"6.60000","0.49711","931.563"
"6.70000","0.50538","944.641"
"6.80000","0.51334","957.831"
"6.90000","0.52161","971.776"
"7.00000","0.52997","986.16"
"7.10000","0.53844","999.981"
"7.20000","0.54681","1013.29"
"7.30000","0.55527","1026.18"
"7.40000","0.56354","1041.11"
"7.50000","0.57180","1054.73"
"7.60000","0.57977","1067.38"
"7.70000","0.58823","1081.33"
"7.80000","0.59680","1094.8"
"7.90000","0.60537","1109.8"
"8.00000","0.61353","1122.81"
"8.10000","0.62210","1137.23"
"8.20000","0.63016","1150.21"
"8.30000","0.63812","1164.16"
"8.40000","0.64669","1177.22"
"8.50000","0.65526","1191.2"
"8.60000","0.66332","1204.04"
"8.70000","0.67169","1216.84"
"8.80000","0.68026","1230.59"
"8.90000","0.68842","1244.65"
"9.00000","0.69638","1257.6"
"9.10000","0.70465","1270.3"
"9.20000","0.71332","1284.35"
"9.30000","0.72178","1298.08"
"9.40000","0.73015","1310.89"
"9.50000","0.73841","1324.66"
"9.60000","0.74678","1338.18"
"9.70000","0.75484","1350.22"
"9.80000","0.76321","1363.74"
"9.90000","0.77198","1376.9"
"10.00000","0.78055","1390.59"
"10.10000","0.78851","1403.14"
"10.20000","0.79677","1416.36"
"10.30000","0.80504","1429.17"
"10.40000","0.81330","1442.54"
"10.50000","0.82167","1455.31"
"10.60000","0.83024","1468.95"
"10.70000","0.83870","1482.88"
"10.80000","0.84707","1496.49"
"10.90000","0.85533","1509.94"
"11.00000","0.86340","1522.33"
"11.10000","0.87176","1535.01"
"11.20000","0.87983","1547.32"
"11.30000","0.88840","1560.48"
"11.40000","0.89686","1574.03"
"11.50000","0.90523","1587.04"
"11.60000","0.91349","1600.42"
"11.70000","0.92156","1612.88"
"11.80000","0.92982","1625.18"
"11.90000","0.93849","1638.62"
"12.00000","0.94696","1652.12"
"12.10000","0.95522","1664.22"
"12.20000","0.96339","1676.54"
"12.30000","0.97145","1688.78"
"12.40000","0.97961","1701.03"
"12.50000","0.98818","1713.69"
"12.60000","0.99675","1727.93"
"12.70000","1.00521","1740.24"
"12.80000","1.01348","1752.78"
"12.90000","1.02185","1766.16"
"13.00000","1.03021","1779.5"
"13.10000","1.03838","1791.25"
"13.20000","1.04694","1804.84"
"13.30000","1.05541","1817.07"
"13.40000","1.06357","1829.67"
"13.50000","1.07204","1842.38"
"13.60000","1.08051","1854.96"
"13.70000","1.08837","1866.99"
"13.80000","1.09653","1878.04"
"13.90000","1.10500","1892.19"
"14.00000","1.11367","1906.43"
"14.10000","1.12203","1918.59"
"14.20000","1.13030","1931.62"
"14.30000","1.13867","1943.31"
"14.40000","1.14663","1955.16"
"14.50000","1.15459","1967.54"
"14.60000","1.16316","1980.46"
"14.70000","1.17203","1992.92"
"14.80000","1.18039","2005.03"
"14.90000","1.18846","2017.64"
"15.00000","1.19692","2029.7"
"15.10000","1.20519","2041.8"
"15.20000","1.21325","2054.27"
"15.30000","1.22172","2066.93"
"15.40000","1.23019","2078.5"
"15.50000","1.23855","2091.46"
"15.60000","1.24682","2103.3"
"15.70000","1.25488","2114.12"
"15.80000","1.26304","2126.35"
"15.90000","1.27131","2138.58"
"16.00000","1.27998","2150.69"
"16.10000","1.28865","2163.36"
"16.20000","1.29711","2175.25"
"16.30000","1.30538","2188.34"
"16.40000","1.31324","2199.62"
"16.50000","1.32151","2211.1"
"16.60000","1.32997","2224.13"
"16.70000","1.33864","2237.19"
"16.80000","1.34701","2249.61"
"16.90000","1.35547","2260.18"
"17.00000","1.36364","2272.47"
"17.10000","1.37150","2283.01"
"17.20000","1.37986","2295.65"
"17.30000","1.38833","2308.43"
"17.40000","1.39690","2319.72"
"17.50000","1.40537","2330.8"
"17.60000","1.41393","2344.31"
"17.70000","1.42190","2355.7"
"17.80000","1.42986","2365.92"
"17.90000","1.43812","2377.37"
"18.00000","1.44679","2390.03"
"18.10000","1.45516","2401.94"
"18.20000","1.46342","2414.18"
"18.30000","1.47199","2425.37"
"18.40000","1.48046","2437.05"
"18.50000","1.48812","2448.37"
"18.60000","1.49618","2459.88"
"18.70000","1.50495","2472.41"
"18.80000","1.51352","2485.14"
"18.90000","1.52188","2495.55"
"19.00000","1.53035","2507.74"
"19.10000","1.53861","2518.92"
"19.20000","1.54648","2530.32"
"19.30000","1.55474","2541.81"
"19.40000","1.56351","2553.42"
"19.50000","1.57208","2564.92"
"19.60000","1.58034","2575.68"
"19.70000","1.58841","2587.1"
"19.80000","1.59667","2597.9"
"19.90000","1.60494","2609"
"20.00000","1.61330","2620.85"
"20.10000","1.62177","2632.4"
"20.20000","1.63024","2643.68"
"20.30000","1.63870","2654.76"
"20.40000","1.64687","2665.73"
"20.50000","1.65493","2677.03"
"20.60000","1.66320","2687.62"
"20.70000","1.67166","2698.51"
"20.80000","1.68013","2710.65"
"20.90000","1.68870","2722.07"
"21.00000","1.69706","2732.9"
"21.10000","1.70523","2744.82"
"21.20000","1.71319","2754.98"
"21.30000","1.72145","2766.34"
"21.40000","1.73012","2778.73"
"21.50000","1.73869","2789.19"
"21.60000","1.74716","2800.62"
"21.70000","1.75522","2811.42"
"21.80000","1.76328","2822.59"
"21.90000","1.77155","2833.46"
"22.00000","1.78002","2844.17"
"22.10000","1.78838","2854.11"
"22.20000","1.79685","2865.3"
"22.30000","1.80521","2877.03"
"22.40000","1.81358","2888.03"
"22.50000","1.82164","2898.31"
"22.60000","1.82991","2908.77"
"22.70000","1.83827","2919.24"
"22.80000","1.84674","2930.47"
"22.90000","1.85501","2940.56"
"23.00000","1.86378","2952.42"
"23.10000","1.87214","2963.11"
"23.20000","1.88020","2972.46"
"23.30000","1.88807","2982.37"
"23.40000","1.89653","2993.76"
"23.50000","1.90540","3004.47"
"23.60000","1.91367","3015.7"
"23.70000","1.92183","3024.38"
"23.80000","1.93020","3035.21"
"23.90000","1.93856","3047.29"
"24.00000","1.94663","3056.54"
"24.10000","1.95509","3066.55"
"24.20000","1.96376","3077.73"
"24.30000","1.97203","3088.2"
"24.40000","1.98009","3099.36"
"24.50000","1.98846","3109.6"
"24.60000","1.99692","3117.63"
"24.70000","2.00499","3127.66"
"24.80000","2.01335","3137.39"
"24.90000","2.02192","3148.46"
"25.00000","2.03019","3157.86"
"25.10000","2.03855","3168.3"
"25.20000","2.04661","3178.69"
"25.30000","2.05478","3188"
"25.40000","2.06314","3198.51"
"25.50000","2.07151","3207.83"
"25.60000","2.08018","3218.72"
"25.70000","2.08865","3229"
"25.80000","2.09691","3238.53"
"25.90000","2.10507","3248.15"
"26.00000","2.11314","3258.19"
"26.10000","2.12140","3268.09"
"26.20000","2.13017","3277.8"
"26.30000","2.13874","3289.1"
"26.40000","2.14711","3299.21"
"26.50000","2.15527","3308.69"
"26.60000","2.16333","3317.86"
"26.70000","2.17150","3327.52"
"26.80000","2.17986","3336.4"
"26.90000","2.18843","3346.75"
"27.00000","2.19680","3356.53"
"27.10000","2.20536","3367.37"
"27.20000","2.21383","3377.23"
"27.30000","2.22189","3386.09"
"27.40000","2.22986","3370.89"
"27.50000","2.23843","3215.16"
"27.60000","2.24689","3223.69"
"27.70000","2.25526","3232.99"
"27.80000","2.26382","3242.58"
"27.90000","2.27209","3251.86"
"28.00000","2.28005","3260.57"
"28.10000","2.28812","3270.13"
"28.20000","2.29648","3279.63"
"28.30000","2.30525","3289.84"
"28.40000","2.31352","3299.05"
"28.50000","2.32178","3308.88"
"28.60000","2.33005","3317.91"
"28.70000","2.33841","3328"
"28.80000","2.34637","3336.49"
"28.90000","2.35504","3346.45"
"29.00000","2.36361","3356.14"
"29.10000","2.37188","3366.08"
"29.20000","2.37994","3374.08"
"29.30000","2.38851","3383.89"
"29.40000","2.39687","3392.95"
"29.50000","2.40534","3401.53"
"29.60000","2.41360","3410.55"
"29.70000","2.42207","3419.07"
"29.80000","2.43024","3428.22"
"29.90000","2.43850","3437.08"
"30.00000","2.44666","3445.24"
"30.10000","2.45503","3455.46"
"30.20000","2.46319","3463.82"
"30.30000","2.47166","3471.04"
"30.40000","2.48033","3480.16"
"30.50000","2.48890","3488.29"
"30.60000","2.49696","3497.38"
"30.70000","2.50492","3504.91"
"30.80000","2.51289","3513.62"
"30.90000","2.52135","3520.78"
"31.00000","2.53022","3530.31"
"31.10000","2.53869","3538.37"
"31.20000","2.54695","3546.9"
"31.30000","2.55492","3554.37"
"31.40000","2.56308","3561.76"
"31.50000","2.57145","3569.56"
"31.60000","2.58001","3577.16"
"31.70000","2.58848","3586.67"
"31.80000","2.59695","3593.14"
"31.90000","2.60541","3559.43"
"32.00000","2.61378","3477.97"
"32.10000","2.62164","3484.23"
"32.20000","2.63001","3491.43"
"32.30000","2.63847","3500.09"
"32.40000","2.64674","3507.18"
"32.50000","2.65541","3516.2"
"32.60000","2.66398","3524.45"
"32.70000","2.67214","3533.5"
"32.80000","2.67980","3540.26"
"32.90000","2.68817","3548.97"
"33.00000","2.69694","3556.87"
"33.10000","2.70540","3564.61"
"33.20000","2.71367","3572.13"
"33.30000","2.72193","3579.38"
"33.40000","2.72989","3587.37"
"33.50000","2.73796","3595.6"
"33.60000","2.74643","3602"
"33.70000","2.75529","3606.91"
"33.80000","2.76356","3614.94"
"33.90000","2.77162","3620.45"
"34.00000","2.77979","3627.95"
"34.10000","2.78825","3635.86"
"34.20000","2.79652","3642.87"
"34.30000","2.80499","3649.9"
"34.40000","2.81345","3657.32"
"34.50000","2.82192","3663.6"
"34.60000","2.83029","3670.83"
"34.70000","2.83855","3677.16"
"34.80000","2.84661","3683.43"
"34.90000","2.85488","3688.91"
"35.00000","2.86335","3695.74"
"35.10000","2.87222","3702.89"
"35.20000","2.88068","3708.63"
"35.30000","2.88895","3715.66"
"35.40000","2.89701","3721.59"
"35.50000","2.90477","3727.38"
"35.60000","2.91304","3734.18"
"35.70000","2.92171","3739.38"
"35.80000","2.93068","3746.42"
"35.90000","2.93904","3752.57"
"36.00000","2.94680","3758.29"
"36.10000","2.95487","3763.26"
"36.20000","2.96323","3768.55"
"36.30000","2.97150","3775.38"
"36.40000","2.97986","3779.94"
"36.50000","2.98843","3786.54"
"36.60000","2.99670","3791.54"
"36.70000","3.00516","3797.28"
"36.80000","3.01343","3801.67"
"36.90000","3.02159","3806.26"
"37.00000","3.02996","3811.81"
"37.10000","3.03842","3817.9"
"37.20000","3.04669","3822.27"
"37.30000","3.05516","3827.51"
"37.40000","3.06372","3832.82"
"37.50000","3.07199","3838.07"
"37.60000","3.07985","3842.33"
"37.70000","3.08822","3845.46"
"37.80000","3.09688","3850.89"
"37.90000","3.10515","3855.69"
"38.00000","3.11352","3859.33"
"38.10000","3.12178","3863.65"
"38.20000","3.12994","3866.39"
"38.30000","3.13801","3870.18"
"38.40000","3.14668","3874.52"
"38.50000","3.15555","3880.17"
"38.60000","3.16381","3883.62"
"38.70000","3.17177","3885.98"
"38.80000","3.18014","3889.99"
"38.90000","3.18851","3893.3"
"39.00000","3.19677","3896.99"
"39.10000","3.20514","3899.99"
"39.20000","3.21370","3903.43"
"39.30000","3.22197","3906.27"
"39.40000","3.23023","3907.67"
"39.50000","3.23830","3911.44"
"39.60000","3.24646","3912.89"
"39.70000","3.25473","3914.76"
"39.80000","3.26329","3917.48"
"39.90000","3.27186","3920.62"
"40.00000","3.28043","3920.02"
"40.10000","3.28880","3919.88"
"40.20000","3.29686","3918.53"
"40.30000","3.30482","3916.31"
"40.40000","3.31319","3914.1"
"40.50000","3.32186","3912.38"
"40.60000","3.33052","3908.52"
"40.70000","3.33889","3903.4"
"40.80000","3.34705","3894.89"
"40.90000","3.35492","3883.56"
"41.00000","3.36308","3865.06"
"41.10000","3.37155","3827.9"
"41.20000","3.38022","3726.97"
"41.24200","3.38394","3413.36"
"41.24600","3.38425","3104.18"
"41.25000","3.38465","2723.69"
"41.25400","3.38515","2310.22"
"41.25600","3.38536","2103.72"