File: Data_Processing/Tensile-Data/Sequence_56.csv
General : Start date,"11/5/2024 8:46 AM"
General : End date,"11/5/2024 8:47 AM"
Specimen notes : Specimen note 1,"Day 3, purple, 215, batch 19, seq 56"
Test : Rate 1,"5.00000",mm/min

Time,Extension,Load
(s),(mm),(N)
"0.00000","0.00000","0.54038"
"0.10000","0.00262","-0.09114"
"0.20000","0.00827","-0.03708"
"0.30000","0.01381","5.70146"
"0.40000","0.02852","32.84824"
"0.50000","0.04012","56.53262"
"0.60000","0.04868","72.25562"
"0.70000","0.05765","88.50121"
"0.80000","0.06632","104.437"
"0.90000","0.07459","118.067"
"1.00000","0.08315","131.543"
"1.10000","0.09182","147.907"
"1.20000","0.10029","162.375"
"1.30000","0.10886","177.326"
"1.40000","0.11722","191.675"
"1.50000","0.12508","206.261"
"1.60000","0.13325","220.151"
"1.70000","0.14172","234.404"
"1.80000","0.15038","249.113"
"1.90000","0.15875","263.422"
"2.00000","0.16712","277.739"
"2.10000","0.17528","291.454"
"2.20000","0.18324","304.786"
"2.30000","0.19151","318.063"
"2.40000","0.20008","332.124"
"2.50000","0.20874","346.753"
"2.60000","0.21711","360.198"
"2.70000","0.22517","373.706"
"2.80000","0.23364","388.859"
"2.90000","0.24170","402.734"
"3.00000","0.24987","415.602"
"3.10000","0.25854","429.398"
"3.20000","0.26720","442.831"
"3.30000","0.27547","456.949"
"3.40000","0.28363","470.006"
"3.50000","0.29200","483.763"
"3.60000","0.30016","496.447"
"3.70000","0.30843","509.218"
"3.80000","0.31679","522.95"
"3.90000","0.32526","537.396"
"4.00000","0.33373","550.343"
"4.10000","0.34199","563.995"
"4.20000","0.34996","577.261"
"4.30000","0.35822","589.158"
"4.40000","0.36669","603.648"
"4.50000","0.37525","617.787"
"4.60000","0.38382","630.384"
"4.70000","0.39219","643.053"
"4.80000","0.40015","656.967"
"4.90000","0.40821","668.435"
"5.00000","0.41658","681.351"
"5.10000","0.42525","694.711"
"5.20000","0.43361","708.942"
"5.30000","0.44198","721.454"
"5.40000","0.44994","734.457"
"5.50000","0.45841","746.761"
"5.60000","0.46688","760.207"
"5.70000","0.47524","773.111"
"5.80000","0.48361","785.719"
"5.90000","0.49207","799.776"
"6.00000","0.50054","812.357"
"6.10000","0.50891","824.824"
"6.20000","0.51707","837.617"
"6.30000","0.52513","849.239"
"6.40000","0.53340","861.295"
"6.50000","0.54187","874.639"
"6.60000","0.55043","887.705"
"6.70000","0.55860","899.687"
"6.80000","0.56706","912.178"
"6.90000","0.57523","924.126"
"7.00000","0.58329","936.593"
"7.10000","0.59146","947.389"
"7.20000","0.60013","960.317"
"7.30000","0.60859","972.858"
"7.40000","0.61706","985.098"
"7.50000","0.62532","997.415"
"7.60000","0.63359","1009.63"
"7.70000","0.64155","1020.77"
"7.80000","0.65002","1033.43"
"7.90000","0.65859","1044.89"
"8.00000","0.66695","1056.82"
"8.10000","0.67491","1067.49"
"8.20000","0.68338","1079.46"
"8.30000","0.69185","1091.43"
"8.40000","0.70011","1102.47"
"8.50000","0.70828","1113.43"
"8.60000","0.71684","1125.86"
"8.70000","0.72561","1137.69"
"8.80000","0.73378","1148.78"
"8.90000","0.74204","1160.48"
"9.00000","0.75031","1170.91"
"9.10000","0.75837","1182.08"
"9.20000","0.76664","1194.08"
"9.30000","0.77510","1205.44"
"9.40000","0.78377","1218.17"
"9.50000","0.79204","1228.79"
"9.60000","0.80010","1239.14"
"9.70000","0.80816","1250.06"
"9.80000","0.81653","1260.26"
"9.90000","0.82500","1270.87"
"10.00000","0.83356","1282.83"
"10.10000","0.84193","1293.27"
"10.20000","0.85009","1302.96"
"10.30000","0.85836","1313.17"
"10.40000","0.86632","1324.26"
"10.50000","0.87479","1334"
"10.60000","0.88356","1345.01"
"10.70000","0.89182","1355.96"
"10.80000","0.90029","1365.72"
"10.90000","0.90886","1376.98"
"11.00000","0.91702","1387.58"
"11.10000","0.92508","1397.58"
"11.20000","0.93335","1407.32"
"11.30000","0.94171","1417.59"
"11.40000","0.95018","1429.3"
"11.50000","0.95865","1439.63"
"11.60000","0.96711","1450.04"
"11.70000","0.97518","1459.57"
"11.80000","0.98314","1470.26"
"11.90000","0.99161","1479.93"
"12.00000","1.00018","1490.02"
"12.10000","1.00854","1500.68"
"12.20000","1.01701","1509.81"
"12.30000","1.02547","1519.51"
"12.40000","1.03344","1530.4"
"12.50000","1.04150","1539.22"
"12.60000","1.04997","1549.74"
"12.70000","1.05864","1560.77"
"12.80000","1.06700","1570.23"
"12.90000","1.07527","1579.44"
"13.00000","1.08343","1588.6"
"13.10000","1.09190","1598.43"
"13.20000","1.09996","1607.42"
"13.30000","1.10833","1616.79"
"13.40000","1.11699","1626.07"
"13.50000","1.12526","1635.96"
"13.60000","1.13353","1644.99"
"13.70000","1.14179","1654.29"
"13.80000","1.14985","1663.29"
"13.90000","1.15812","1672.57"
"14.00000","1.16638","1680.22"
"14.10000","1.17535","1688.98"
"14.20000","1.18402","1698.78"
"14.30000","1.19199","1706.01"
"14.40000","1.20005","1715.38"
"14.50000","1.20852","1725.26"
"14.60000","1.21678","1733.77"
"14.70000","1.22535","1742.83"
"14.80000","1.23381","1751.24"
"14.90000","1.24218","1759.67"
"15.00000","1.25045","1768.19"
"15.10000","1.25841","1778.03"
"15.20000","1.26657","1785.53"
"15.30000","1.27504","1795"
"15.40000","1.28361","1804.07"
"15.50000","1.29207","1813.44"
"15.60000","1.30054","1823.01"
"15.70000","1.30860","1831.02"
"15.80000","1.31667","1839.78"
"15.90000","1.32483","1848.22"
"16.00000","1.33330","1857.22"
"16.10000","1.34197","1866.46"
"16.20000","1.35023","1876.54"
"16.30000","1.35880","1884.81"
"16.40000","1.36706","1892.54"
"16.50000","1.37483","1901.58"
"16.60000","1.38309","1909.73"
"16.70000","1.39176","1917.28"
"16.80000","1.40043","1927.38"
"16.90000","1.40879","1936.86"
"17.00000","1.41706","1944.16"
"17.10000","1.42522","1953.83"
"17.20000","1.43329","1961.3"
"17.30000","1.44165","1970.75"
"17.40000","1.45032","1980.1"
"17.50000","1.45879","1988.63"
"17.60000","1.46705","1997.16"
"17.70000","1.47522","2006.28"
"17.80000","1.48358","2014.31"
"17.90000","1.49185","2024.31"
"18.00000","1.49991","2033.2"
"18.10000","1.50838","2041.85"
"18.20000","1.51694","2050.75"
"18.30000","1.52531","2059.32"
"18.40000","1.53358","2067.47"
"18.50000","1.54184","2075.84"
"18.60000","1.55000","2084.87"
"18.70000","1.55827","2092.1"
"18.80000","1.56674","2099.66"
"18.90000","1.57551","2110.23"
"19.00000","1.58377","2118.28"
"19.10000","1.59183","2125.45"
"19.20000","1.59990","2134.42"
"19.30000","1.60826","2142.2"
"19.40000","1.61673","2151.47"
"19.50000","1.62540","2159.89"
"19.60000","1.63376","2167.84"
"19.70000","1.64183","2175.92"
"19.80000","1.65009","2185.41"
"19.90000","1.65836","2193.07"
"20.00000","1.66682","2201.54"
"20.10000","1.67529","2210.1"
"20.20000","1.68366","2218.27"
"20.30000","1.69212","2226.59"
"20.40000","1.70039","2235.37"
"20.50000","1.70855","2242.71"
"20.60000","1.71662","2251.28"
"20.70000","1.72488","2259.87"
"20.80000","1.73315","2267.35"
"20.90000","1.74171","2276.76"
"21.00000","1.75018","2285.69"
"21.10000","1.75865","2292.76"
"21.20000","1.76681","2301.18"
"21.30000","1.77467","2308.07"
"21.40000","1.78314","2318.1"
"21.50000","1.79201","2326.89"
"21.60000","1.80048","2334.69"
"21.70000","1.80864","2342.97"
"21.80000","1.81701","2351.36"
"21.90000","1.82527","2359.32"
"22.00000","1.83334","2366.05"
"22.10000","1.84170","2375.83"
"22.20000","1.85027","2383.92"
"22.30000","1.85863","2392.27"
"22.40000","1.86680","2400.84"
"22.50000","1.87527","2408.42"
"22.60000","1.88353","2416.37"
"22.70000","1.89170","2424.01"
"22.80000","1.89986","2432.35"
"22.90000","1.90843","2440.41"
"23.00000","1.91709","2449.68"
"23.10000","1.92526","2457.99"
"23.20000","1.93342","2464.61"
"23.30000","1.94179","2473.37"
"23.40000","1.95005","2481.34"
"23.50000","1.95822","2490.45"
"23.60000","1.96689","2498.11"
"23.70000","1.97566","2506.6"
"23.80000","1.98382","2515.04"
"23.90000","1.99178","2522.41"
"24.00000","1.99995","2529.04"
"24.10000","2.00841","2538.06"
"24.20000","2.01688","2546.88"
"24.30000","2.02515","2553.92"
"24.40000","2.03361","2562.67"
"24.50000","2.04208","2570.43"
"24.60000","2.05024","2578.2"
"24.70000","2.05831","2585.78"
"24.80000","2.06657","2594.08"
"24.90000","2.07504","2602.49"
"25.00000","2.08351","2610.13"
"25.10000","2.09197","2619.55"
"25.20000","2.10044","2627.19"
"25.30000","2.10840","2634.96"
"25.40000","2.11636","2641.87"
"25.50000","2.12483","2651.04"
"25.60000","2.13380","2660.98"
"25.70000","2.14217","2668.46"
"25.80000","2.15043","2676.05"
"25.90000","2.15880","2685.06"
"26.00000","2.16666","2693.07"
"26.10000","2.17472","2699.72"
"26.20000","2.18329","2708.82"
"26.30000","2.19206","2716.8"
"26.40000","2.20043","2724.52"
"26.50000","2.20859","2732.98"
"26.60000","2.21665","2739.95"
"26.70000","2.22482","2747.42"
"26.80000","2.23308","2755.63"
"26.90000","2.24195","2764.27"
"27.00000","2.25042","2771.48"
"27.10000","2.25858","2780.11"
"27.20000","2.26695","2787.76"
"27.30000","2.27542","2795.53"
"27.40000","2.28358","2803.49"
"27.50000","2.29174","2811.41"
"27.60000","2.30021","2820.28"
"27.70000","2.30898","2829.05"
"27.80000","2.31725","2836.05"
"27.90000","2.32551","2845.27"
"28.00000","2.33357","2853.04"
"28.10000","2.34164","2860.69"
"28.20000","2.35000","2868.86"
"28.30000","2.35847","2878.2"
"28.40000","2.36724","2885.89"
"28.50000","2.37571","2893.42"
"28.60000","2.38377","2902.18"
"28.70000","2.39153","2909.59"
"28.80000","2.40000","2917.33"
"28.90000","2.40846","2925.27"
"29.00000","2.41693","2933.56"
"29.10000","2.42540","2941.17"
"29.20000","2.43346","2948.68"
"29.30000","2.44173","2956.64"
"29.40000","2.44989","2965.32"
"29.50000","2.45805","2971.83"
"29.60000","2.46672","2979.47"
"29.70000","2.47519","2988.32"
"29.80000","2.48356","2995.94"
"29.90000","2.49212","3002.94"
"30.00000","2.50029","3011.06"
"30.10000","2.50845","3018.74"
"30.20000","2.51662","3025.63"
"30.30000","2.52508","3035.45"
"30.40000","2.53365","3042.17"
"30.50000","2.54212","3049.08"
"30.60000","2.55048","3057.75"
"30.70000","2.55865","3066.37"
"30.80000","2.56661","3072.63"
"30.90000","2.57487","3080.66"
"31.00000","2.58354","3088.42"
"31.10000","2.59221","3096.53"
"31.20000","2.60058","3104.86"
"31.30000","2.60864","3111.62"
"31.40000","2.61691","3119.56"
"31.50000","2.62507","3126.17"
"31.60000","2.63303","3133.29"
"31.70000","2.64170","3142.28"
"31.80000","2.65017","3150.08"
"31.90000","2.65833","3156.28"
"32.00000","2.66670","3164.36"
"32.10000","2.67506","3171.73"
"32.20000","2.68333","3178.73"
"32.30000","2.69149","3185.88"
"32.40000","2.70006","3194.13"
"32.50000","2.70873","3201.78"
"32.60000","2.71689","3209.63"
"32.70000","2.72516","3217.7"
"32.80000","2.73342","3225.23"
"32.90000","2.74159","3231.73"
"33.00000","2.74995","3239.69"
"33.10000","2.75862","3248.32"
"33.20000","2.76729","3255.7"
"33.30000","2.77545","3262.85"
"33.40000","2.78352","3270.7"
"33.50000","2.79168","3277.97"
"33.60000","2.80005","3286.05"
"33.70000","2.80841","3292.52"
"33.80000","2.81698","3300.58"
"33.90000","2.82525","3309.11"
"34.00000","2.83381","3315.18"
"34.10000","2.84198","3322.67"
"34.20000","2.84994","3331.28"
"34.30000","2.85821","3337.44"
"34.40000","2.86677","3345.18"
"34.50000","2.87534","3352.89"
"34.60000","2.88391","3360.93"
"34.70000","2.89217","3367.33"
"34.80000","2.90034","3376.31"
"34.90000","2.90820","3381.79"
"35.00000","2.91646","3388.15"
"35.10000","2.92523","3397.32"
"35.20000","2.93370","3404.43"
"35.30000","2.94196","3412.13"
"35.40000","2.95033","3418.22"
"35.50000","2.95849","3425.62"
"35.60000","2.96646","3431.99"
"35.70000","2.97482","3439.16"
"35.80000","2.98359","3447.02"
"35.90000","2.99206","3455.14"
"36.00000","3.00032","3461.96"
"36.10000","3.00869","3468.92"
"36.20000","3.01675","3476.88"
"36.30000","3.02482","3483.08"
"36.40000","3.03349","3490.07"
"36.50000","3.04195","3498.33"
"36.60000","3.05032","3505.92"
"36.70000","3.05868","3512.48"
"36.80000","3.06715","3520.43"
"36.90000","3.07542","3526.51"
"37.00000","3.08338","3533.23"
"37.10000","3.09154","3540.51"
"37.20000","3.10031","3548.45"
"37.30000","3.10888","3554.58"
"37.40000","3.11704","3562.25"
"37.50000","3.12531","3568.38"
"37.60000","3.13327","3575.54"
"37.70000","3.14144","3582.79"
"37.80000","3.14990","3589.97"
"37.90000","3.15857","3597.18"
"38.00000","3.16724","3604.82"
"38.10000","3.17550","3610.15"
"38.20000","3.18347","3617.41"
"38.30000","3.19163","3624.49"
"38.40000","3.20010","3631.36"
"38.50000","3.20856","3638.64"
"38.60000","3.21703","3645.48"
"38.70000","3.22540","3651.07"
"38.80000","3.23366","3657.5"
"38.90000","3.24172","3664"
"39.00000","3.24979","3670.74"
"39.10000","3.25825","3677.79"
"39.20000","3.26682","3683.63"
"39.30000","3.27539","3690.73"
"39.40000","3.28386","3697.6"
"39.50000","3.29212","3703.71"
"39.60000","3.30018","3708.88"
"39.70000","3.30835","3715.04"
"39.80000","3.31661","3721.35"
"39.90000","3.32518","3726.74"
"40.00000","3.33365","3732.54"
"40.10000","3.34222","3739.38"
"40.20000","3.35028","3743.96"
"40.30000","3.35824","3749"
"40.40000","3.36631","3754.61"
"40.50000","3.37507","3759.4"
"40.60000","3.38384","3764.97"
"40.70000","3.39211","3770.43"
"40.80000","3.40037","3774.66"
"40.90000","3.40864","3779.49"
"41.00000","3.41660","3783.73"
"41.10000","3.42487","3786.52"
"41.20000","3.43354","3790.82"
"41.30000","3.44200","3794.81"
"41.40000","3.45037","3797.55"
"41.50000","3.45873","3801.9"
"41.60000","3.46700","3803.63"
"41.70000","3.47516","3806.09"
"41.80000","3.48333","3807.24"
"41.90000","3.49169","3808.35"
"42.00000","3.50046","3809.37"
"42.10000","3.50883","3810.12"
"42.20000","3.51699","3808.6"
"42.30000","3.52516","3805.67"
"42.40000","3.53332","3803.19"
"42.50000","3.54159","3796.44"
"42.60000","3.55025","3787.62"
"42.70000","3.55892","3774.28"
"42.80000","3.56719","3748.32"
"42.90000","3.57515","3673.87"
"42.92000","3.57676","3374.33"
"42.92400","3.57717","3039.57"
"42.92800","3.57757","2646.32"
"42.93200","3.57797","2225.08"