File: Data_Processing/Tensile-Data/Sequence_5.csv
General : Start date,"10/22/2024 9:21 AM"
General : End date,"10/22/2024 9:21 AM"
Specimen notes : Specimen note 1,"red, 200, batch 2, seq 5"
Test : Rate 1,"5.00000",mm/min

Time,Extension,Load
(s),(mm),(N)
"0.00000","0.00000","-0.29059"
"0.10000","0.00262","2.05058"
"0.20000","0.01472","21.19757"
"0.30000","0.02580","43.78424"
"0.40000","0.03336","57.56330"
"0.50000","0.04173","72.38837"
"0.60000","0.05020","87.45164"
"0.70000","0.05836","101.373"
"0.80000","0.06652","116.118"
"0.90000","0.07509","131.487"
"1.00000","0.08366","147.721"
"1.10000","0.09202","161.959"
"1.20000","0.10039","176.421"
"1.30000","0.10855","191.564"
"1.40000","0.11682","205.598"
"1.50000","0.12529","220.475"
"1.60000","0.13395","234.962"
"1.70000","0.14232","250.458"
"1.80000","0.15038","264.963"
"1.90000","0.15855","278.389"
"2.00000","0.16691","293.398"
"2.10000","0.17508","306.876"
"2.20000","0.18334","321.838"
"2.30000","0.19201","336.484"
"2.40000","0.20058","351.727"
"2.50000","0.20884","365.514"
"2.60000","0.21701","379.358"
"2.70000","0.22527","392.913"
"2.80000","0.23354","407.532"
"2.90000","0.24190","422.215"
"3.00000","0.25017","435.304"
"3.10000","0.25874","450.268"
"3.20000","0.26730","465.12"
"3.30000","0.27547","478.647"
"3.40000","0.28353","491.981"
"3.50000","0.29170","506.078"
"3.60000","0.30006","519.916"
"3.70000","0.30863","534.713"
"3.80000","0.31710","548.519"
"3.90000","0.32536","561.697"
"4.00000","0.33322","575.547"
"4.10000","0.34139","589.522"
"4.20000","0.35006","603.324"
"4.30000","0.35872","617.7"
"4.40000","0.36709","631.899"
"4.50000","0.37536","647.337"
"4.60000","0.38372","659.855"
"4.70000","0.39209","674.578"
"4.80000","0.40025","688.103"
"4.90000","0.40862","701.538"
"5.00000","0.41708","715.766"
"5.10000","0.42535","729.02"
"5.20000","0.43382","743.219"
"5.30000","0.44218","756.575"
"5.40000","0.45004","769.585"
"5.50000","0.45821","782.317"
"5.60000","0.46678","796.23"
"5.70000","0.47534","811.305"
"5.80000","0.48371","825.396"
"5.90000","0.49218","839.446"
"6.00000","0.50054","852.06"
"6.10000","0.50850","865.528"
"6.20000","0.51647","878.829"
"6.30000","0.52493","892.632"
"6.40000","0.53370","906.714"
"6.50000","0.54217","919.357"
"6.60000","0.55053","933.167"
"6.70000","0.55870","946.249"
"6.80000","0.56686","959.695"
"6.90000","0.57493","971.785"
"7.00000","0.58360","985.466"
"7.10000","0.59216","999.629"
"7.20000","0.60023","1012.51"
"7.30000","0.60829","1025.28"
"7.40000","0.61655","1037.86"
"7.50000","0.62492","1050.84"
"7.60000","0.63329","1064.41"
"7.70000","0.64175","1077.9"
"7.80000","0.65042","1090.94"
"7.90000","0.65899","1104.55"
"8.00000","0.66715","1117.21"
"8.10000","0.67512","1128.3"
"8.20000","0.68328","1140.28"
"8.30000","0.69175","1153.69"
"8.40000","0.70021","1166.34"
"8.50000","0.70868","1179.42"
"8.60000","0.71725","1191.68"
"8.70000","0.72541","1204.23"
"8.80000","0.73317","1216.71"
"8.90000","0.74154","1229.06"
"9.00000","0.75001","1241.55"
"9.10000","0.75867","1254"
"9.20000","0.76724","1266.29"
"9.30000","0.77561","1279.63"
"9.40000","0.78357","1291.86"
"9.50000","0.79153","1303.3"
"9.60000","0.79990","1315.72"
"9.70000","0.80857","1328.38"
"9.80000","0.81703","1341.61"
"9.90000","0.82520","1352.73"
"10.00000","0.83376","1364.04"
"10.10000","0.84223","1376.46"
"10.20000","0.85009","1388.11"
"10.30000","0.85816","1400.21"
"10.40000","0.86672","1411.91"
"10.50000","0.87529","1424.88"
"10.60000","0.88366","1436.51"
"10.70000","0.89212","1448.44"
"10.80000","0.90029","1461.35"
"10.90000","0.90825","1472.49"
"11.00000","0.91642","1483.57"
"11.10000","0.92518","1495.82"
"11.20000","0.93395","1508.14"
"11.30000","0.94212","1519.55"
"11.40000","0.95038","1531.46"
"11.50000","0.95865","1543.62"
"11.60000","0.96691","1554.72"
"11.70000","0.97518","1566.29"
"11.80000","0.98354","1577.09"
"11.90000","0.99211","1589.72"
"12.00000","1.00038","1600.46"
"12.10000","1.00854","1611.51"
"12.20000","1.01671","1622.72"
"12.30000","1.02507","1634.27"
"12.40000","1.03334","1645.63"
"12.50000","1.04180","1656.63"
"12.60000","1.05037","1668.98"
"12.70000","1.05874","1680.17"
"12.80000","1.06690","1690.72"
"12.90000","1.07506","1701.75"
"13.00000","1.08333","1711.33"
"13.10000","1.09180","1722.69"
"13.20000","1.10046","1735.17"
"13.30000","1.10883","1747.02"
"13.40000","1.11710","1757.61"
"13.50000","1.12516","1767.88"
"13.60000","1.13322","1778.93"
"13.70000","1.14169","1789.35"
"13.80000","1.15016","1800.78"
"13.90000","1.15862","1812.23"
"14.00000","1.16699","1823.76"
"14.10000","1.17535","1834.11"
"14.20000","1.18352","1844.19"
"14.30000","1.19168","1855.3"
"14.40000","1.20015","1865.53"
"14.50000","1.20841","1876.84"
"14.60000","1.21668","1887.54"
"14.70000","1.22535","1899.26"
"14.80000","1.23392","1910.44"
"14.90000","1.24198","1920.69"
"15.00000","1.24994","1929.96"
"15.10000","1.25831","1940.85"
"15.20000","1.26718","1952.24"
"15.30000","1.27544","1963.38"
"15.40000","1.28371","1974.18"
"15.50000","1.29207","1984.31"
"15.60000","1.30034","1995.89"
"15.70000","1.30840","2005.42"
"15.80000","1.31667","2014.74"
"15.90000","1.32554","2026.21"
"16.00000","1.33390","2037.1"
"16.10000","1.34197","2047.8"
"16.20000","1.35033","2057.9"
"16.30000","1.35870","2068.54"
"16.40000","1.36656","2077.76"
"16.50000","1.37503","2087.79"
"16.60000","1.38359","2099.7"
"16.70000","1.39196","2109.77"
"16.80000","1.40033","2118.41"
"16.90000","1.40859","2128.71"
"17.00000","1.41665","2137.45"
"17.10000","1.42482","2146.73"
"17.20000","1.43318","2156.73"
"17.30000","1.44195","2167.75"
"17.40000","1.45052","2176.21"
"17.50000","1.45889","2184.07"
"17.60000","1.46695","2192.59"
"17.70000","1.47501","2199.38"
"17.80000","1.48308","2207.91"
"17.90000","1.49185","2217.38"
"18.00000","1.50041","2227.13"
"18.10000","1.50878","2235.88"
"18.20000","1.51705","2244.35"
"18.30000","1.52521","2254.77"
"18.40000","1.53347","2263.26"
"18.50000","1.54164","2271.78"
"18.60000","1.55011","2282.95"
"18.70000","1.55857","2292.21"
"18.80000","1.56704","2301.9"
"18.90000","1.57561","2311.86"
"19.00000","1.58387","2321.46"
"19.10000","1.59193","2330.82"
"19.20000","1.60020","2340.22"
"19.30000","1.60877","2348.96"
"19.40000","1.61703","2358.12"
"19.50000","1.62550","2368.09"
"19.60000","1.63386","2377.03"
"19.70000","1.64173","2385.13"
"19.80000","1.64979","2393.26"
"19.90000","1.65836","2403.26"
"20.00000","1.66693","2413.72"
"20.10000","1.67529","2422.67"
"20.20000","1.68366","2432.28"
"20.30000","1.69182","2440.98"
"20.40000","1.70009","2451.04"
"20.50000","1.70805","2459.65"
"20.60000","1.71672","2470.06"
"20.70000","1.72549","2479.25"
"20.80000","1.73375","2488.27"
"20.90000","1.74171","2496.99"
"21.00000","1.75018","2507.05"
"21.10000","1.75865","2516.93"
"21.20000","1.76691","2525.49"
"21.30000","1.77518","2535"
"21.40000","1.78395","2544.25"
"21.50000","1.79221","2553.89"
"21.60000","1.80048","2562.19"
"21.70000","1.80844","2570.82"
"21.80000","1.81670","2579.49"
"21.90000","1.82497","2589.25"
"22.00000","1.83344","2598.07"
"22.10000","1.84200","2608.24"
"22.20000","1.85057","2617.5"
"22.30000","1.85884","2627.3"
"22.40000","1.86690","2636.13"
"22.50000","1.87476","2643.77"
"22.60000","1.88323","2653.77"
"22.70000","1.89200","2662.73"
"22.80000","1.90046","2671.85"
"22.90000","1.90863","2681.16"
"23.00000","1.91669","2690.38"
"23.10000","1.92486","2699.48"
"23.20000","1.93332","2708.42"
"23.30000","1.94179","2717.1"
"23.40000","1.95036","2726.67"
"23.50000","1.95882","2736.11"
"23.60000","1.96719","2745.28"
"23.70000","1.97535","2754.45"
"23.80000","1.98322","2762.37"
"23.90000","1.99168","2771.52"
"24.00000","2.00015","2781.8"
"24.10000","2.00851","2790.02"
"24.20000","2.01708","2800.33"
"24.30000","2.02565","2808.68"
"24.40000","2.03381","2817.87"
"24.50000","2.04157","2825.36"
"24.60000","2.04994","2834.15"
"24.70000","2.05861","2843.4"
"24.80000","2.06718","2852.94"
"24.90000","2.07544","2861.02"
"25.00000","2.08371","2870.95"
"25.10000","2.09177","2878.91"
"25.20000","2.09993","2886.77"
"25.30000","2.10810","2896.02"
"25.40000","2.11687","2904.47"
"25.50000","2.12544","2913.81"
"25.60000","2.13360","2922.77"
"25.70000","2.14166","2931.55"
"25.80000","2.15003","2940.31"
"25.90000","2.15839","2949.14"
"26.00000","2.16676","2957.65"
"26.10000","2.17533","2966.35"
"26.20000","2.18369","2975.15"
"26.30000","2.19206","2984.21"
"26.40000","2.20033","2993.04"
"26.50000","2.20839","3000.23"
"26.60000","2.21655","3008.79"
"26.70000","2.22512","3017.59"
"26.80000","2.23389","3026.89"
"26.90000","2.24226","3036.5"
"27.00000","2.25062","3044.92"
"27.10000","2.25889","3054.05"
"27.20000","2.26685","3061.86"
"27.30000","2.27501","3069.43"
"27.40000","2.28348","3077.8"
"27.50000","2.29235","3087.78"
"27.60000","2.30051","3095.89"
"27.70000","2.30858","3104.36"
"27.80000","2.31674","3111.72"
"27.90000","2.32491","3120.27"
"28.00000","2.33337","3129.63"
"28.10000","2.34174","3137.77"
"28.20000","2.35031","3146.58"
"28.30000","2.35867","3155.43"
"28.40000","2.36694","3163.91"
"28.50000","2.37520","3171.96"
"28.60000","2.38327","3179.51"
"28.70000","2.39173","3187.67"
"28.80000","2.40020","3196.52"
"28.90000","2.40846","3204.87"
"29.00000","2.41693","3212.84"
"29.10000","2.42550","3222.47"
"29.20000","2.43356","3230.55"
"29.30000","2.44152","3237.7"
"29.40000","2.44989","3245.75"
"29.50000","2.45866","3254.5"
"29.60000","2.46703","3263.22"
"29.70000","2.47529","3271.13"
"29.80000","2.48366","3280.24"
"29.90000","2.49182","3288.28"
"30.00000","2.49988","3296.3"
"30.10000","2.50835","3304.35"
"30.20000","2.51702","3213.44"
"30.30000","2.52559","3217.39"
"30.40000","2.53365","3227.69"
"30.50000","2.54202","3239.1"
"30.60000","2.55058","3249.81"
"30.70000","2.55855","3260.44"
"30.80000","2.56691","3270.04"
"30.90000","2.57538","3281.17"
"31.00000","2.58374","3290.54"
"31.10000","2.59191","3299.64"
"31.20000","2.60017","3309.86"
"31.30000","2.60834","3318.69"
"31.40000","2.61650","3329.27"
"31.50000","2.62517","3339.38"
"31.60000","2.63364","3349.71"
"31.70000","2.64231","3359.32"
"31.80000","2.65057","3358.08"
"31.90000","2.65873","3329.93"
"32.00000","2.66680","3341.19"
"32.10000","2.67496","3352.18"
"32.20000","2.68383","3363.61"
"32.30000","2.69230","3374.83"
"32.40000","2.70066","3385.19"
"32.50000","2.70863","3395.47"
"32.60000","2.71659","3405.21"
"32.70000","2.72486","3414.96"
"32.80000","2.73322","3425.41"
"32.90000","2.74189","3436.83"
"33.00000","2.75036","3446.76"
"33.10000","2.75872","3456.72"
"33.20000","2.76709","3467"
"33.30000","2.77515","3476.94"
"33.40000","2.78332","3486.37"
"33.50000","2.79168","3495.73"
"33.60000","2.80005","3506.69"
"33.70000","2.80851","3516.34"
"33.80000","2.81718","3525.96"
"33.90000","2.82545","3535.28"
"34.00000","2.83321","3544.49"
"34.10000","2.84147","3554.11"
"34.20000","2.84994","3563.18"
"34.30000","2.85871","3573.09"
"34.40000","2.86718","3582.08"
"34.50000","2.87544","3591.01"
"34.60000","2.88371","3600.73"
"34.70000","2.89157","3609.75"
"34.80000","2.89983","3618.59"
"34.90000","2.90840","3626.58"
"35.00000","2.91717","3636.92"
"35.10000","2.92554","3645.17"
"35.20000","2.93350","3654.26"
"35.30000","2.94196","3662.08"
"35.40000","2.95023","3671.32"
"35.50000","2.95849","3679.49"
"35.60000","2.96686","3688.48"
"35.70000","2.97543","3696.21"
"35.80000","2.98379","3705.07"
"35.90000","2.99196","3713.79"
"36.00000","2.99992","3720.43"
"36.10000","3.00819","3728.69"
"36.20000","3.01655","3736.14"
"36.30000","3.02502","3745.21"
"36.40000","3.03379","3753.44"
"36.50000","3.04225","3761.62"
"36.60000","3.05032","3769.26"
"36.70000","3.05818","3776.16"
"36.80000","3.06634","3783.82"
"36.90000","3.07501","3792.34"
"37.00000","3.08368","3801.25"
"37.10000","3.09225","3808.49"
"37.20000","3.10041","3815.8"
"37.30000","3.10858","3823.39"
"37.40000","3.11674","3830.12"
"37.50000","3.12521","3837.86"
"37.60000","3.13367","3844.7"
"37.70000","3.14204","3852.55"
"37.80000","3.15061","3860.28"
"37.90000","3.15907","3867.84"
"38.00000","3.16704","3873.95"
"38.10000","3.17490","3880.49"
"38.20000","3.18326","3888.23"
"38.30000","3.19183","3895.92"
"38.40000","3.20030","3903.37"
"38.50000","3.20866","3910.88"
"38.60000","3.21723","3918.11"
"38.70000","3.22540","3925.61"
"38.80000","3.23326","3931.4"
"38.90000","3.24162","3937.19"
"39.00000","3.25039","3945.6"
"39.10000","3.25886","3952.85"
"39.20000","3.26692","3959.7"
"39.30000","3.27529","3966.01"
"39.40000","3.28355","3973.66"
"39.50000","3.29152","3979.87"
"39.60000","3.29978","3985.43"
"39.70000","3.30865","3992.03"
"39.80000","3.31712","3999.57"
"39.90000","3.32508","4004.72"
"40.00000","3.33345","4010.21"
"40.10000","3.34201","4015.74"
"40.20000","3.35028","3952.73"
"40.30000","3.35865","3953.78"
"40.40000","3.36701","3963.75"
"40.50000","3.37548","3972.99"
"40.60000","3.38405","3981.39"
"40.70000","3.39211","3989.51"
"40.80000","3.40017","3996.49"
"40.90000","3.40824","4003.5"
"41.00000","3.41660","4012.5"
"41.10000","3.42537","4020.44"
"41.20000","3.43394","4028.29"
"41.30000","3.44230","4036.2"
"41.40000","3.45047","4042.13"
"41.50000","3.45843","4048.13"
"41.60000","3.46680","4055.01"
"41.70000","3.47516","4062.79"
"41.80000","3.48363","4068.62"
"41.90000","3.49200","4075.7"
"42.00000","3.50016","4083.14"
"42.10000","3.50822","4088.34"
"42.20000","3.51669","4094.52"
"42.30000","3.52506","4102.64"
"42.40000","3.53362","4109"
"42.50000","3.54189","4115.52"
"42.60000","3.55035","4121.41"
"42.70000","3.55892","4129.05"
"42.80000","3.56709","4133.83"
"42.90000","3.57525","4138.9"
"43.00000","3.58342","4144.7"
"43.10000","3.59178","4150.49"
"43.20000","3.60015","4156.29"
"43.30000","3.60892","4161.59"
"43.40000","3.61738","4167.01"
"43.50000","3.62524","4171.26"
"43.60000","3.63321","4174.24"
"43.70000","3.64167","4179.79"
"43.80000","3.65044","4184.49"
"43.90000","3.65881","4188.95"
"44.00000","3.66717","4192.59"
"44.10000","3.67544","4195.3"
"44.20000","3.68340","4198.49"
"44.30000","3.69147","4200.58"
"44.40000","3.70003","4202.36"
"44.50000","3.70870","4204.1"
"44.60000","3.71707","4203.71"
"44.70000","3.72523","4203.08"
"44.80000","3.73350","4200.46"
"44.90000","3.74186","4197.03"
"45.00000","3.74983","4190.4"
"45.10000","3.75829","4179.99"
"45.20000","3.76686","4164.52"
"45.30000","3.77543","4132.13"
"45.39800","3.78389","3876.83"
"45.40200","3.78420","3566.86"
"45.40600","3.78450","3166.16"
"45.41000","3.78500","2714.58"
"45.41400","3.78541","2255.71"