File: Data_Processing/Tensile-Data/Sequence_54.csv
General : Start date,"11/5/2024 8:42 AM"
General : End date,"11/5/2024 8:43 AM"
Specimen notes : Specimen note 1,"Day 3, red, 230, batch 17, seq 54"
Test : Rate 1,"5.00000",mm/min

Time,Extension,Load
(s),(mm),(N)
"0.00000","0.00000","-0.41791"
"0.10000","0.00131","0.78245"
"0.20000","0.01028","12.13102"
"0.30000","0.02328","39.49249"
"0.40000","0.03215","57.48927"
"0.50000","0.04062","74.00597"
"0.60000","0.04959","91.56476"
"0.70000","0.05846","107.28"
"0.80000","0.06662","122.61"
"0.90000","0.07469","136.995"
"1.00000","0.08326","151.718"
"1.10000","0.09202","167.35"
"1.20000","0.10039","182.83"
"1.30000","0.10876","196.232"
"1.40000","0.11692","210.33"
"1.50000","0.12498","224.28"
"1.60000","0.13315","238.936"
"1.70000","0.14192","253.242"
"1.80000","0.15048","267.92"
"1.90000","0.15885","283.135"
"2.00000","0.16691","295.329"
"2.10000","0.17528","309.742"
"2.20000","0.18344","323.576"
"2.30000","0.19171","337.255"
"2.40000","0.20018","352.075"
"2.50000","0.20874","365.976"
"2.60000","0.21701","381.278"
"2.70000","0.22537","396.173"
"2.80000","0.23364","409.691"
"2.90000","0.24180","423.444"
"3.00000","0.25017","438.636"
"3.10000","0.25854","451.351"
"3.20000","0.26690","465.692"
"3.30000","0.27547","479.322"
"3.40000","0.28373","493.599"
"3.50000","0.29180","506.683"
"3.60000","0.29986","518.836"
"3.70000","0.30823","533.446"
"3.80000","0.31679","546.177"
"3.90000","0.32546","559.841"
"4.00000","0.33393","573.7"
"4.10000","0.34179","586.082"
"4.20000","0.34985","599.753"
"4.30000","0.35812","613.765"
"4.40000","0.36679","626.963"
"4.50000","0.37525","641.383"
"4.60000","0.38352","654.144"
"4.70000","0.39158","666.692"
"4.80000","0.40005","680.21"
"4.90000","0.40852","693.628"
"5.00000","0.41688","706.369"
"5.10000","0.42525","717.72"
"5.20000","0.43372","731.815"
"5.30000","0.44208","744.71"
"5.40000","0.45045","757.229"
"5.50000","0.45871","769.072"
"5.60000","0.46678","782.134"
"5.70000","0.47514","794.27"
"5.80000","0.48371","806.427"
"5.90000","0.49207","820.139"
"6.00000","0.50034","831.95"
"6.10000","0.50881","844.111"
"6.20000","0.51697","856.497"
"6.30000","0.52503","868.315"
"6.40000","0.53320","881.263"
"6.50000","0.54187","892.278"
"6.60000","0.55033","904.099"
"6.70000","0.55870","916.86"
"6.80000","0.56686","927.861"
"6.90000","0.57503","938.267"
"7.00000","0.58319","949.899"
"7.10000","0.59146","961.5"
"7.20000","0.60033","973.513"
"7.30000","0.60869","984.343"
"7.40000","0.61655","995.615"
"7.50000","0.62492","1007.19"
"7.60000","0.63359","1019.28"
"7.70000","0.64185","1029.7"
"7.80000","0.65002","1040.4"
"7.90000","0.65848","1051.59"
"8.00000","0.66725","1064.19"
"8.10000","0.67552","1075.06"
"8.20000","0.68368","1085.28"
"8.30000","0.69185","1096.37"
"8.40000","0.70001","1106.49"
"8.50000","0.70828","1117.92"
"8.60000","0.71684","1129.51"
"8.70000","0.72541","1137.89"
"8.80000","0.73368","1149.24"
"8.90000","0.74174","1159.79"
"9.00000","0.74990","1169.75"
"9.10000","0.75817","1180.35"
"9.20000","0.76664","1190.58"
"9.30000","0.77510","1202.47"
"9.40000","0.78357","1211.85"
"9.50000","0.79183","1222.01"
"9.60000","0.79990","1233.02"
"9.70000","0.80796","1242.25"
"9.80000","0.81653","1252.79"
"9.90000","0.82520","1263.82"
"10.00000","0.83346","1273.68"
"10.10000","0.84193","1284.32"
"10.20000","0.85050","1294.05"
"10.30000","0.85856","1302.31"
"10.40000","0.86662","1311.23"
"10.50000","0.87499","1321.27"
"10.60000","0.88346","1330.43"
"10.70000","0.89202","1339.78"
"10.80000","0.90049","1347.81"
"10.90000","0.90886","1356.73"
"11.00000","0.91692","1366.74"
"11.10000","0.92488","1374.91"
"11.20000","0.93325","1383.39"
"11.30000","0.94182","1392.03"
"11.40000","0.95008","1401.67"
"11.50000","0.95855","1410.7"
"11.60000","0.96701","1419.98"
"11.70000","0.97498","1429.23"
"11.80000","0.98314","1438.77"
"11.90000","0.99171","1447.26"
"12.00000","1.00028","1457.04"
"12.10000","1.00864","1465.04"
"12.20000","1.01681","1474.77"
"12.30000","1.02517","1483.42"
"12.40000","1.03354","1491.24"
"12.50000","1.04150","1499.29"
"12.60000","1.05007","1508.19"
"12.70000","1.05864","1515.84"
"12.80000","1.06700","1524.58"
"12.90000","1.07517","1532.48"
"13.00000","1.08343","1540.29"
"13.10000","1.09149","1548.34"
"13.20000","1.09976","1556.39"
"13.30000","1.10813","1565.8"
"13.40000","1.11689","1574.7"
"13.50000","1.12556","1583.56"
"13.60000","1.13353","1592.18"
"13.70000","1.14169","1598.89"
"13.80000","1.15006","1607.98"
"13.90000","1.15852","1617.09"
"14.00000","1.16709","1624.48"
"14.10000","1.17556","1633.39"
"14.20000","1.18402","1643.17"
"14.30000","1.19209","1649.46"
"14.40000","1.19995","1658.29"
"14.50000","1.20821","1666.54"
"14.60000","1.21678","1675.16"
"14.70000","1.22525","1684.55"
"14.80000","1.23371","1693.47"
"14.90000","1.24218","1701.5"
"15.00000","1.25034","1709.84"
"15.10000","1.25831","1717.79"
"15.20000","1.26637","1726.71"
"15.30000","1.27494","1734.64"
"15.40000","1.28361","1744.66"
"15.50000","1.29197","1752.7"
"15.60000","1.30044","1761.53"
"15.70000","1.30860","1769.93"
"15.80000","1.31647","1778.35"
"15.90000","1.32473","1786"
"16.00000","1.33340","1796.5"
"16.10000","1.34207","1805.18"
"16.20000","1.35043","1813.2"
"16.30000","1.35870","1822.45"
"16.40000","1.36696","1830.56"
"16.50000","1.37503","1838.58"
"16.60000","1.38329","1847.08"
"16.70000","1.39186","1855.65"
"16.80000","1.40043","1864.99"
"16.90000","1.40869","1872.55"
"17.00000","1.41686","1880.71"
"17.10000","1.42532","1889.74"
"17.20000","1.43349","1897.95"
"17.30000","1.44165","1905.46"
"17.40000","1.45002","1915.31"
"17.50000","1.45858","1922.72"
"17.60000","1.46685","1931.85"
"17.70000","1.47522","1940.15"
"17.80000","1.48348","1948.29"
"17.90000","1.49164","1957.7"
"18.00000","1.50001","1965.45"
"18.10000","1.50848","1973.17"
"18.20000","1.51705","1983.23"
"18.30000","1.52541","1991.11"
"18.40000","1.53358","1999.37"
"18.50000","1.54164","2008.91"
"18.60000","1.55000","2015.69"
"18.70000","1.55847","2025.42"
"18.80000","1.56694","2035.24"
"18.90000","1.57540","2044.33"
"19.00000","1.58367","2052.91"
"19.10000","1.59183","2061.25"
"19.20000","1.59990","2070.57"
"19.30000","1.60836","2078.29"
"19.40000","1.61683","2087.13"
"19.50000","1.62520","2096.47"
"19.60000","1.63366","2105.48"
"19.70000","1.64213","2113.35"
"19.80000","1.65019","2121.93"
"19.90000","1.65826","2129.64"
"20.00000","1.66652","2137.67"
"20.10000","1.67479","2146.11"
"20.20000","1.68335","2155.21"
"20.30000","1.69182","2162.92"
"20.40000","1.70019","2171.47"
"20.50000","1.70835","2178.78"
"20.60000","1.71641","2187.08"
"20.70000","1.72488","2196.94"
"20.80000","1.73365","2206.17"
"20.90000","1.74202","2214.69"
"21.00000","1.75028","2223.17"
"21.10000","1.75865","2231.56"
"21.20000","1.76681","2240.85"
"21.30000","1.77488","2248.57"
"21.40000","1.78334","2258.49"
"21.50000","1.79201","2268.15"
"21.60000","1.80038","2277.55"
"21.70000","1.80844","2286.19"
"21.80000","1.81701","2293.99"
"21.90000","1.82517","2302.66"
"22.00000","1.83334","2312.27"
"22.10000","1.84160","2320.13"
"22.20000","1.85007","2328.75"
"22.30000","1.85853","2337.34"
"22.40000","1.86670","2346.81"
"22.50000","1.87496","2354.46"
"22.60000","1.88343","2362.25"
"22.70000","1.89210","2371.77"
"22.80000","1.90006","2381.43"
"22.90000","1.90853","2388.64"
"23.00000","1.91720","2397.3"
"23.10000","1.92546","2405.31"
"23.20000","1.93342","2414.62"
"23.30000","1.94159","2423.11"
"23.40000","1.95016","2430.61"
"23.50000","1.95862","2439.84"
"23.60000","1.96689","2448.52"
"23.70000","1.97535","2457.1"
"23.80000","1.98372","2466.42"
"23.90000","1.99178","2474.09"
"24.00000","1.99995","2481.46"
"24.10000","2.00831","2491.76"
"24.20000","2.01678","2499.65"
"24.30000","2.02525","2508.92"
"24.40000","2.03371","2518.8"
"24.50000","2.04208","2526.03"
"24.60000","2.05014","2534.46"
"24.70000","2.05810","2542.63"
"24.80000","2.06657","2550.7"
"24.90000","2.07534","2559.53"
"25.00000","2.08381","2568.77"
"25.10000","2.09217","2578.02"
"25.20000","2.10044","2585.8"
"25.30000","2.10840","2593.26"
"25.40000","2.11636","2602.94"
"25.50000","2.12483","2610.96"
"25.60000","2.13370","2620.63"
"25.70000","2.14197","2628.89"
"25.80000","2.15023","2638.19"
"25.90000","2.15850","2646.22"
"26.00000","2.16656","2654.74"
"26.10000","2.17462","2663.31"
"26.20000","2.18339","2673.02"
"26.30000","2.19196","2681.6"
"26.40000","2.20022","2689.92"
"26.50000","2.20859","2698.21"
"26.60000","2.21706","2707.35"
"26.70000","2.22522","2715.22"
"26.80000","2.23339","2723.8"
"26.90000","2.24185","2733.14"
"27.00000","2.25052","2741.52"
"27.10000","2.25879","2749.42"
"27.20000","2.26705","2757.19"
"27.30000","2.27521","2766.12"
"27.40000","2.28328","2773.76"
"27.50000","2.29154","2783.61"
"27.60000","2.30021","2792.49"
"27.70000","2.30888","2801.07"
"27.80000","2.31735","2809.98"
"27.90000","2.32531","2817.56"
"28.00000","2.33327","2825.58"
"28.10000","2.34164","2835.16"
"28.20000","2.35021","2843.41"
"28.30000","2.35867","2852.31"
"28.40000","2.36704","2860.34"
"28.50000","2.37530","2870.14"
"28.60000","2.38337","2877.97"
"28.70000","2.39143","2886.99"
"28.80000","2.39980","2895.06"
"28.90000","2.40856","2903.79"
"29.00000","2.41683","2912.86"
"29.10000","2.42509","2921.1"
"29.20000","2.43366","2929.94"
"29.30000","2.44193","2938.02"
"29.40000","2.45009","2946.51"
"29.50000","2.45826","2955.05"
"29.60000","2.46682","2962.6"
"29.70000","2.47529","2970.97"
"29.80000","2.48366","2979.94"
"29.90000","2.49212","2988.26"
"30.00000","2.50019","2996.73"
"30.10000","2.50815","3005"
"30.20000","2.51662","3013.86"
"30.30000","2.52538","3023.8"
"30.40000","2.53405","3031.93"
"30.50000","2.54222","3039.66"
"30.60000","2.55028","3048.86"
"30.70000","2.55844","3056.59"
"30.80000","2.56661","3064.43"
"30.90000","2.57477","3072.84"
"31.00000","2.58344","3081.86"
"31.10000","2.59181","3091.11"
"31.20000","2.59997","3098.77"
"31.30000","2.60824","3107.97"
"31.40000","2.61670","3117.06"
"31.50000","2.62487","3124.53"
"31.60000","2.63303","3133.7"
"31.70000","2.64160","3142.25"
"31.80000","2.65027","3150.8"
"31.90000","2.65843","3159.69"
"32.00000","2.66690","3168.37"
"32.10000","2.67516","3175.82"
"32.20000","2.68333","3184.15"
"32.30000","2.69169","3193.31"
"32.40000","2.70026","3201.34"
"32.50000","2.70893","3209.4"
"32.60000","2.71709","3217.81"
"32.70000","2.72506","3225.94"
"32.80000","2.73322","3234.09"
"32.90000","2.74179","3242.16"
"33.00000","2.75015","3250.95"
"33.10000","2.75872","3258.81"
"33.20000","2.76709","3268.17"
"33.30000","2.77545","3276.85"
"33.40000","2.78362","3284.52"
"33.50000","2.79158","3293.12"
"33.60000","2.79985","3301.36"
"33.70000","2.80841","3309.12"
"33.80000","2.81708","3318.78"
"33.90000","2.82545","3327.64"
"34.00000","2.83391","3335.6"
"34.10000","2.84198","3344.55"
"34.20000","2.84994","3351.34"
"34.30000","2.85810","3359.45"
"34.40000","2.86677","3369.59"
"34.50000","2.87534","3376.84"
"34.60000","2.88361","3385.03"
"34.70000","2.89197","3393.68"
"34.80000","2.90003","3401.52"
"34.90000","2.90810","3409.75"
"35.00000","2.91656","3418.07"
"35.10000","2.92533","3427.53"
"35.20000","2.93370","3435.62"
"35.30000","2.94186","3443.54"
"35.40000","2.95033","3452.03"
"35.50000","2.95849","3459.37"
"35.60000","2.96666","3467.54"
"35.70000","2.97502","3475.55"
"35.80000","2.98359","3483.85"
"35.90000","2.99196","3491.83"
"36.00000","3.00042","3501.25"
"36.10000","3.00879","3508.5"
"36.20000","3.01706","3516.67"
"36.30000","3.02502","3524.51"
"36.40000","3.03318","3531.99"
"36.50000","3.04195","3541.45"
"36.60000","3.05052","3548.27"
"36.70000","3.05868","3556.57"
"36.80000","3.06685","3564.52"
"36.90000","3.07481","3572.35"
"37.00000","3.08298","3579.62"
"37.10000","3.09144","3588.41"
"37.20000","3.10011","3596.46"
"37.30000","3.10878","3605.26"
"37.40000","3.11704","3612.74"
"37.50000","3.12521","3620.85"
"37.60000","3.13337","3629.15"
"37.70000","3.14184","3637.62"
"37.80000","3.15031","3644.65"
"37.90000","3.15877","3653.72"
"38.00000","3.16704","3661.23"
"38.10000","3.17530","3669.07"
"38.20000","3.18326","3676.63"
"38.30000","3.19153","3684"
"38.40000","3.20010","3692.02"
"38.50000","3.20856","3700.67"
"38.60000","3.21703","3708.54"
"38.70000","3.22540","3716.56"
"38.80000","3.23376","3724.36"
"38.90000","3.24193","3731.66"
"39.00000","3.24989","3740.16"
"39.10000","3.25825","3746.45"
"39.20000","3.26692","3756.59"
"39.30000","3.27549","3763.18"
"39.40000","3.28386","3770"
"39.50000","3.29192","3778.24"
"39.60000","3.29978","3784.24"
"39.70000","3.30795","3792.34"
"39.80000","3.31672","3799.38"
"39.90000","3.32548","3807.4"
"40.00000","3.33375","3815.05"
"40.10000","3.34201","3822.05"
"40.20000","3.35018","3828.82"
"40.30000","3.35814","3836.36"
"40.40000","3.36651","3843.55"
"40.50000","3.37518","3851.3"
"40.60000","3.38364","3859.23"
"40.70000","3.39191","3865.93"
"40.80000","3.40017","3873.15"
"40.90000","3.40874","3880.77"
"41.00000","3.41680","3887.91"
"41.10000","3.42497","3896.24"
"41.20000","3.43343","3901.75"
"41.30000","3.44210","3909.68"
"41.40000","3.45047","3917.23"
"41.50000","3.45863","3923.29"
"41.60000","3.46690","3930.9"
"41.70000","3.47496","3938.66"
"41.80000","3.48333","3944.5"
"41.90000","3.49189","3952.29"
"42.00000","3.50046","3959.3"
"42.10000","3.50883","3966.67"
"42.20000","3.51679","3973.4"
"42.30000","3.52475","3979.37"
"42.40000","3.53312","3985.78"
"42.50000","3.54169","3993.75"
"42.60000","3.55015","3999.49"
"42.70000","3.55842","4006.26"
"42.80000","3.56689","4013.39"
"42.90000","3.57515","4019.95"
"43.00000","3.58321","4025.89"
"43.10000","3.59158","4032.11"
"43.20000","3.60015","4039.16"
"43.30000","3.60861","4045.36"
"43.40000","3.61708","4050.74"
"43.50000","3.62555","4057.97"
"43.60000","3.63371","4064.02"
"43.70000","3.64177","4069.51"
"43.80000","3.64994","4074.67"
"43.90000","3.65851","4082.04"
"44.00000","3.66707","4086.1"
"44.10000","3.67544","4091.95"
"44.20000","3.68381","4098.4"
"44.30000","3.69177","4103.29"
"44.40000","3.69993","4108.2"
"44.50000","3.70840","4113.32"
"44.60000","3.71697","4118.6"
"44.70000","3.72523","4125.01"
"44.80000","3.73360","4129.95"
"44.90000","3.74186","4133.56"
"45.00000","3.75033","4137.99"
"45.10000","3.75829","4143.21"
"45.20000","3.76666","4146.12"
"45.30000","3.77512","4151.25"
"45.40000","3.78339","4155.04"
"45.50000","3.79176","4158.97"
"45.60000","3.80022","4162.01"
"45.70000","3.80869","4166.7"
"45.80000","3.81685","4169.17"
"45.90000","3.82502","4171.28"
"46.00000","3.83359","4175.29"
"46.10000","3.84225","4178.1"
"46.20000","3.85042","4179.42"
"46.30000","3.85868","4182.87"
"46.40000","3.86665","4183.86"
"46.50000","3.87481","4184.43"
"46.60000","3.88328","4186.51"
"46.70000","3.89205","4187.54"
"46.80000","3.90061","4188.01"
"46.90000","3.90878","4187.87"
"47.00000","3.91684","4186.49"
"47.10000","3.92511","4186.02"
"47.20000","3.93347","4183.78"
"47.30000","3.94174","4182.14"
"47.40000","3.95020","4180.76"
"47.50000","3.95857","4177.49"
"47.60000","3.96693","4174.96"
"47.70000","3.97510","4170.11"
"47.80000","3.98316","4165.03"
"47.90000","3.99173","4160.48"
"48.00000","4.00010","4155.8"
"48.10000","4.00836","4149.28"
"48.20000","4.01693","4144.15"
"48.30000","4.02550","4136.94"
"48.40000","4.03366","4128.78"
"48.50000","4.04172","4121.21"
"48.60000","4.04989","4112.22"
"48.70000","4.05856","4103.01"
"48.80000","4.06712","4094.59"
"48.90000","4.07549","4084.47"
"49.00000","4.08376","4073.77"
"49.10000","4.09172","4062.94"
"49.20000","4.09988","4051.94"
"49.30000","4.10835","4039.62"
"49.40000","4.11702","4026.79"
"49.50000","4.12548","4014.94"
"49.60000","4.13375","4001.07"
"49.70000","4.14191","3983.91"
"49.80000","4.15008","3968.26"
"49.90000","4.15824","3949.76"
"50.00000","4.16671","3929.31"
"50.10000","4.17528","3907.76"
"50.20000","4.18364","3881.61"
"50.30000","4.19191","3849.29"
"50.37200","4.19795","3497.48"
"50.37600","4.19836","3142.07"
"50.38000","4.19876","2726.91"
"50.38400","4.19926","2287.44"