File: Data_Processing/Tensile-Data/Sequence_14.csv
General : Start date,"10/22/2024 9:51 AM"
General : End date,"10/22/2024 9:51 AM"
Specimen notes : Specimen note 1,"blue, 200, batch 3, seq 14"
Test : Rate 1,"5.00000",mm/min

Time,Extension,Load
(s),(mm),(N)
"0.00000","0.00000","0.07399"
"0.10000","0.00232","0.95624"
"0.20000","0.01462","19.85172"
"0.30000","0.02530","43.19370"
"0.40000","0.03266","55.08055"
"0.50000","0.04112","71.79000"
"0.60000","0.05020","87.53728"
"0.70000","0.05856","102.288"
"0.80000","0.06703","112.49"
"0.90000","0.07539","126.554"
"1.00000","0.08326","141.293"
"1.10000","0.09152","154.725"
"1.20000","0.10019","155.752"
"1.30000","0.10876","171.603"
"1.40000","0.11712","186.631"
"1.50000","0.12559","200.286"
"1.60000","0.13375","213.233"
"1.70000","0.14172","227.23"
"1.80000","0.15008","241.595"
"1.90000","0.15845","256.084"
"2.00000","0.16702","270.797"
"2.10000","0.17548","284.776"
"2.20000","0.18375","298.273"
"2.30000","0.19191","310.944"
"2.40000","0.19997","325.058"
"2.50000","0.20814","339.292"
"2.60000","0.21671","352.8"
"2.70000","0.22527","366.351"
"2.80000","0.23374","380.043"
"2.90000","0.24201","394.467"
"3.00000","0.25017","407.953"
"3.10000","0.25833","421.544"
"3.20000","0.26670","435.374"
"3.30000","0.27527","450.076"
"3.40000","0.28373","464.172"
"3.50000","0.29210","478.256"
"3.60000","0.30037","492.218"
"3.70000","0.30833","505.196"
"3.80000","0.31649","518.481"
"3.90000","0.32486","531.934"
"4.00000","0.33353","545.429"
"4.10000","0.34209","558.883"
"4.20000","0.35036","573.007"
"4.30000","0.35842","585.453"
"4.40000","0.36659","599.838"
"4.50000","0.37505","613.347"
"4.60000","0.38342","627.017"
"4.70000","0.39189","640.848"
"4.80000","0.40045","654.798"
"4.90000","0.40862","668.825"
"5.00000","0.41688","681.019"
"5.10000","0.42495","695.412"
"5.20000","0.43331","708.239"
"5.30000","0.44198","721.751"
"5.40000","0.45035","734.634"
"5.50000","0.45891","747.698"
"5.60000","0.46728","761.265"
"5.70000","0.47524","774.753"
"5.80000","0.48331","788.091"
"5.90000","0.49177","800.068"
"6.00000","0.50014","812.976"
"6.10000","0.50840","825.883"
"6.20000","0.51667","839.933"
"6.30000","0.52524","853.87"
"6.40000","0.53350","866.326"
"6.50000","0.54156","878.312"
"6.60000","0.54973","890.983"
"6.70000","0.55830","905.282"
"6.80000","0.56686","918.967"
"6.90000","0.57523","931.979"
"7.00000","0.58360","944.758"
"7.10000","0.59176","957.233"
"7.20000","0.59992","969.473"
"7.30000","0.60819","982.168"
"7.40000","0.61696","995.694"
"7.50000","0.62542","1010.31"
"7.60000","0.63359","1021.75"
"7.70000","0.64175","1034.81"
"7.80000","0.65002","1047.16"
"7.90000","0.65828","1059.63"
"8.00000","0.66665","1073.39"
"8.10000","0.67532","1087.52"
"8.20000","0.68378","1100.5"
"8.30000","0.69195","1113.3"
"8.40000","0.70021","1125.35"
"8.50000","0.70848","1138.09"
"8.60000","0.71674","1150.5"
"8.70000","0.72491","1163.26"
"8.80000","0.73348","1176.11"
"8.90000","0.74214","1188.81"
"9.00000","0.75061","1201.45"
"9.10000","0.75867","1214.07"
"9.20000","0.76664","1225.51"
"9.30000","0.77470","1238.45"
"9.40000","0.78317","1251.28"
"9.50000","0.79183","1264.96"
"9.60000","0.80030","1276.82"
"9.70000","0.80857","1289.21"
"9.80000","0.81643","1300.52"
"9.90000","0.82469","1312.79"
"10.00000","0.83336","1324.92"
"10.10000","0.84183","1338.23"
"10.20000","0.85019","1350.26"
"10.30000","0.85856","1363"
"10.40000","0.86703","1375.29"
"10.50000","0.87529","1387.7"
"10.60000","0.88346","1398.62"
"10.70000","0.89182","1410.97"
"10.80000","0.90019","1423.73"
"10.90000","0.90855","1436.27"
"11.00000","0.91692","1447.24"
"11.10000","0.92559","1459.74"
"11.20000","0.93355","1471.95"
"11.30000","0.94151","1483.99"
"11.40000","0.94988","1495.71"
"11.50000","0.95855","1507.58"
"11.60000","0.96701","1520.62"
"11.70000","0.97538","1532.37"
"11.80000","0.98375","1544.47"
"11.90000","0.99171","1554.16"
"12.00000","0.99967","1566.74"
"12.10000","1.00824","1577.54"
"12.20000","1.01711","1589.93"
"12.30000","1.02537","1602.72"
"12.40000","1.03344","1613.26"
"12.50000","1.04170","1625.18"
"12.60000","1.05007","1637.54"
"12.70000","1.05833","1647.81"
"12.80000","1.06670","1659.78"
"12.90000","1.07527","1673.07"
"13.00000","1.08363","1684.43"
"13.10000","1.09180","1695.08"
"13.20000","1.09996","1706.33"
"13.30000","1.10802","1717.29"
"13.40000","1.11629","1728.9"
"13.50000","1.12486","1741.15"
"13.60000","1.13353","1753.39"
"13.70000","1.14219","1764.83"
"13.80000","1.15036","1776.37"
"13.90000","1.15852","1787.48"
"14.00000","1.16638","1797.3"
"14.10000","1.17495","1809.03"
"14.20000","1.18352","1821.31"
"14.30000","1.19199","1832.61"
"14.40000","1.20055","1843.89"
"14.50000","1.20862","1855.28"
"14.60000","1.21668","1867.07"
"14.70000","1.22484","1877.37"
"14.80000","1.23341","1888.32"
"14.90000","1.24188","1900.48"
"15.00000","1.25034","1912.03"
"15.10000","1.25881","1923.28"
"15.20000","1.26688","1933.02"
"15.30000","1.27494","1944.11"
"15.40000","1.28320","1955.68"
"15.50000","1.29187","1966.8"
"15.60000","1.30014","1977.93"
"15.70000","1.30840","1988.19"
"15.80000","1.31697","2000.14"
"15.90000","1.32554","2010.52"
"16.00000","1.33330","2022.1"
"16.10000","1.34136","2032.54"
"16.20000","1.35003","2044.42"
"16.30000","1.35870","2055.91"
"16.40000","1.36686","2066"
"16.50000","1.37533","2076.62"
"16.60000","1.38349","2087.4"
"16.70000","1.39146","2095.9"
"16.80000","1.39982","2107.2"
"16.90000","1.40849","2118.22"
"17.00000","1.41726","2129.51"
"17.10000","1.42552","2140.29"
"17.20000","1.43349","2150.17"
"17.30000","1.44185","2160.78"
"17.40000","1.45012","2170.84"
"17.50000","1.45828","2177.2"
"17.60000","1.46695","2187.58"
"17.70000","1.47542","2198.18"
"17.80000","1.48368","2209.09"
"17.90000","1.49175","2219.44"
"18.00000","1.49991","2230.1"
"18.10000","1.50818","2239.18"
"18.20000","1.51654","2249.43"
"18.30000","1.52511","2261.07"
"18.40000","1.53368","2270.95"
"18.50000","1.54204","2282.96"
"18.60000","1.55031","2289.86"
"18.70000","1.55837","2300.01"
"18.80000","1.56664","2310.04"
"18.90000","1.57500","2319.99"
"19.00000","1.58357","2329.24"
"19.10000","1.59204","2340.16"
"19.20000","1.60030","2350.63"
"19.30000","1.60836","2360.18"
"19.40000","1.61663","2370.57"
"19.50000","1.62510","2379.91"
"19.60000","1.63336","2389.51"
"19.70000","1.64193","2400.1"
"19.80000","1.65029","2410.28"
"19.90000","1.65856","2420.3"
"20.00000","1.66682","2428.71"
"20.10000","1.67499","2436.01"
"20.20000","1.68346","2444.04"
"20.30000","1.69172","2452.3"
"20.40000","1.69988","2462.4"
"20.50000","1.70855","2472.92"
"20.60000","1.71712","2483.04"
"20.70000","1.72528","2492.91"
"20.80000","1.73325","2501.7"
"20.90000","1.74161","2416.9"
"21.00000","1.75038","2431.17"
"21.10000","1.75875","2442.51"
"21.20000","1.76681","2453.66"
"21.30000","1.77528","2465.75"
"21.40000","1.78374","2476.88"
"21.50000","1.79161","2487.27"
"21.60000","1.79987","2497.81"
"21.70000","1.80884","2510.93"
"21.80000","1.81721","2521.36"
"21.90000","1.82537","2532.42"
"22.00000","1.83354","2543.62"
"22.10000","1.84190","2552.31"
"22.20000","1.84997","2563.77"
"22.30000","1.85813","2575.06"
"22.40000","1.86690","2585.43"
"22.50000","1.87527","2596.25"
"22.60000","1.88363","2606.66"
"22.70000","1.89180","2616.93"
"22.80000","1.89986","2627.14"
"22.90000","1.90812","2636.67"
"23.00000","1.91649","2647.29"
"23.10000","1.92526","2658.35"
"23.20000","1.93373","2668.7"
"23.30000","1.94199","2677.79"
"23.40000","1.95026","2687.01"
"23.50000","1.95832","2697"
"23.60000","1.96638","2706.65"
"23.70000","1.97505","2717.31"
"23.80000","1.98372","2725.54"
"23.90000","1.99209","2735.55"
"24.00000","2.00025","2743.99"
"24.10000","2.00831","2753.61"
"24.20000","2.01668","2763.16"
"24.30000","2.02494","2773.49"
"24.40000","2.03351","2782.94"
"24.50000","2.04198","2791.36"
"24.60000","2.05055","2802.04"
"24.70000","2.05881","2811.11"
"24.80000","2.06677","2820.58"
"24.90000","2.07494","2828.9"
"25.00000","2.08340","2838.93"
"25.10000","2.09197","2848.85"
"25.20000","2.10024","2857.91"
"25.30000","2.10870","2865.93"
"25.40000","2.11717","2875.28"
"25.50000","2.12503","2883.5"
"25.60000","2.13299","2892.26"
"25.70000","2.14156","2901.02"
"25.80000","2.15023","2911.22"
"25.90000","2.15860","2919.49"
"26.00000","2.16686","2928.45"
"26.10000","2.17503","2937.86"
"26.20000","2.18339","2946.27"
"26.30000","2.19135","2953.75"
"26.40000","2.19992","2891.02"
"26.50000","2.20859","2906.41"
"26.60000","2.21706","2916.95"
"26.70000","2.22512","2926.17"
"26.80000","2.23349","2937.03"
"26.90000","2.24175","2946.06"
"27.00000","2.25002","2956.94"
"27.10000","2.25848","2965.85"
"27.20000","2.26695","2976.58"
"27.30000","2.27542","2986.97"
"27.40000","2.28368","2997.16"
"27.50000","2.29185","2999.44"
"27.60000","2.30001","3007.58"
"27.70000","2.30827","3016.96"
"27.80000","2.31664","3025.15"
"27.90000","2.32521","3036.72"
"28.00000","2.33368","3045.42"
"28.10000","2.34184","3053.81"
"28.20000","2.35000","3063.34"
"28.30000","2.35807","3071.59"
"28.40000","2.36653","3080.98"
"28.50000","2.37530","3090.99"
"28.60000","2.38387","3100.34"
"28.70000","2.39214","3108.96"
"28.80000","2.40000","3117.69"
"28.90000","2.40806","3126.58"
"29.00000","2.41653","3126.12"
"29.10000","2.42509","3134.98"
"29.20000","2.43366","3144.9"
"29.30000","2.44213","3153.36"
"29.40000","2.45039","3162.06"
"29.50000","2.45856","3170.23"
"29.60000","2.46652","3177.65"
"29.70000","2.47489","3185.27"
"29.80000","2.48335","3194.52"
"29.90000","2.49172","3203.33"
"30.00000","2.50029","3211.78"
"30.10000","2.50896","3220.06"
"30.20000","2.51712","3228.8"
"30.30000","2.52488","3235.08"
"30.40000","2.53315","3243.81"
"30.50000","2.54181","3252.46"
"30.60000","2.55048","3261.32"
"30.70000","2.55865","3268.33"
"30.80000","2.56691","3275.87"
"30.90000","2.57508","3283.92"
"31.00000","2.58324","3291.16"
"31.10000","2.59151","3299.3"
"31.20000","2.60017","3304.19"
"31.30000","2.60864","3312.71"
"31.40000","2.61680","3319.98"
"31.50000","2.62497","3325.97"
"31.60000","2.63323","3334.08"
"31.70000","2.64160","3342.71"
"31.80000","2.64997","3349.56"
"31.90000","2.65853","3357.1"
"32.00000","2.66680","3364.77"
"32.10000","2.67526","3371.42"
"32.20000","2.68363","3379.3"
"32.30000","2.69169","3386.59"
"32.40000","2.69986","3392.95"
"32.50000","2.70832","3399.48"
"32.60000","2.71709","3407.49"
"32.70000","2.72556","3415.73"
"32.80000","2.73393","3423.09"
"32.90000","2.74199","3429.97"
"33.00000","2.74995","3435.63"
"33.10000","2.75822","3417.33"
"33.20000","2.76658","3366.74"
"33.30000","2.77566","3378.69"
"33.40000","2.78392","3386.89"
"33.50000","2.79188","3395.29"
"33.60000","2.79995","3403.14"
"33.70000","2.80831","3411.31"
"33.80000","2.81678","3420.26"
"33.90000","2.82494","3427.29"
"34.00000","2.83351","3435.97"
"34.10000","2.84168","3444.64"
"34.20000","2.85014","3453.66"
"34.30000","2.85851","3460.16"
"34.40000","2.86657","3467.17"
"34.50000","2.87474","3474.41"
"34.60000","2.88350","3483.61"
"34.70000","2.89187","3491.41"
"34.80000","2.90034","3499.05"
"34.90000","2.90880","3505.59"
"35.00000","2.91697","3512.22"
"35.10000","2.92473","3518.88"
"35.20000","2.93309","3525.83"
"35.30000","2.94196","3532.95"
"35.40000","2.95043","3539.33"
"35.50000","2.95860","3546.03"
"35.60000","2.96686","3552.95"
"35.70000","2.97513","3559.62"
"35.80000","2.98329","3565.84"
"35.90000","2.99166","3572.87"
"36.00000","3.00053","3579.82"
"36.10000","3.00879","3586.99"
"36.20000","3.01685","3592.53"
"36.30000","3.02522","3598.08"
"36.40000","3.03369","3602.97"
"36.50000","3.04185","3609.29"
"36.60000","3.05002","3614.93"
"36.70000","3.05858","3621.04"
"36.80000","3.06695","3625.88"
"36.90000","3.07531","3631.69"
"37.00000","3.08348","3637.06"
"37.10000","3.09144","3642.79"
"37.20000","3.09971","3647.31"
"37.30000","3.10838","3652.24"
"37.40000","3.11684","3655.78"
"37.50000","3.12541","3661.25"
"37.60000","3.13377","3665.34"
"37.70000","3.14184","3669.23"
"37.80000","3.14980","3673.51"
"37.90000","3.15827","3678.94"
"38.00000","3.16704","3684.34"
"38.10000","3.17571","3688.73"
"38.20000","3.18387","3692.49"
"38.30000","3.19193","3696.6"
"38.40000","3.19990","3700.7"
"38.50000","3.20806","3704.54"
"38.60000","3.21663","3708.1"
"38.70000","3.22519","3712.25"
"38.80000","3.23366","3716.8"
"38.90000","3.24203","3721.02"
"39.00000","3.25029","3724.42"
"39.10000","3.25846","3728.15"
"39.20000","3.26662","3729.27"
"39.30000","3.27499","3732.78"
"39.40000","3.28335","3735.41"
"39.50000","3.29182","3737.86"
"39.60000","3.30069","3739.24"
"39.70000","3.30895","3741.44"
"39.80000","3.31661","3743.09"
"39.90000","3.32468","3744.23"
"40.00000","3.33325","3746.24"
"40.10000","3.34191","3748.5"
"40.20000","3.35028","3749.56"
"40.30000","3.35865","3750.14"
"40.40000","3.36691","3750.77"
"40.50000","3.37497","3750.76"
"40.60000","3.38314","3750.66"
"40.70000","3.39181","3739.3"
"40.80000","3.40058","3734.55"
"40.90000","3.40874","3734.25"
"41.00000","3.41690","3733.37"
"41.10000","3.42517","3732.71"
"41.20000","3.43354","3733.46"
"41.30000","3.44180","3731.87"
"41.40000","3.45017","3732.37"
"41.50000","3.45863","3732.19"
"41.60000","3.46690","3732.42"
"41.70000","3.47516","3731.24"
"41.80000","3.48323","3729.43"
"41.90000","3.49149","3727.99"
"42.00000","3.49976","3725.48"
"42.10000","3.50842","3723.13"
"42.20000","3.51709","3719.97"
"42.30000","3.52556","3714.19"
"42.40000","3.53362","3701.62"
"42.50000","3.54159","3680.06"
"42.60000","3.54965","3644.72"
"42.70000","3.55822","3538.33"
"42.80000","3.56719","3463.13"
"42.90000","3.57565","3419.28"
"43.00000","3.58382","3384.24"
"43.10000","3.59178","3358.05"
"43.20000","3.59995","3332.03"
"43.30000","3.60841","3300.25"
"43.40000","3.61688","3244.35"
"43.43200","3.61970","2909.4"
"43.43600","3.62000","2605.25"
"43.44000","3.62041","2253.52"
"43.44400","3.62091","1885.25"